File: i_data/0.25Kmin/Blank.csv
Blank for NH3-H2O Specific Heat - Large HF,,,,
Creation Date : 6/13/2022 3:40:40 PM,,,,
User : admin,,,,
,,,,
HeatFlow :,,,,
 Initial Mass : 0 mg,,,,
 Molar Mass : N/A,,,,
,,,,
Index,Time(s),Furnace Temperature(K),Sample Temperature(K),HeatFlow(mW)
1,0,297.042,297.237,3.306932
13,139.2,296.921,297.225,1.683545
25,278.4,296.7587,297.205,0.783986
37,417.6,296.556,297.177,0.280862
49,556.8,296.309,297.137,0.001031
61,696,296.019,297.085,-0.154789
73,835.2,295.685,297.017,-0.233831
85,974.4,295.307,296.934,-0.280586
97,1113.6,294.885,296.833,-0.295908
109,1252.8,294.409,296.712,-0.289585
121,1392,293.876,296.569,-0.286017
133,1531.2,293.2825,296.402,-0.27128
145,1670.4,292.63,296.21,-0.25173
157,1809.6,291.917,295.989,-0.223237
169,1948.8,291.147,295.74,-0.191124
181,2088,290.318,295.459,-0.155558
193,2227.2,289.435,295.145,-0.116706
205,2366.4,288.5047,294.797,-0.083686
217,2505.6,287.537,294.415,-0.026184
229,2644.8,286.541,294.001,0.036707
241,2784,285.528,293.553,0.105863
253,2923.2,284.507,293.076,0.159564
265,3062.4,283.484,292.571,0.192614
277,3201.6,282.461,292.038,0.220698
289,3340.8,281.443,291.476,0.251242
301,3480,280.431,290.888,0.303791
313,3619.2,279.426,290.274,0.372335
325,3758.4,278.43,289.638,0.451371
337,3897.6,277.439,288.982,0.517364
349,4036.8,276.455,288.309,0.585721
361,4176,275.481,287.617,0.651422
373,4315.2,274.513,286.912,0.704214
385,4454.4,273.553,286.191,0.755545
397,4593.6,272.602,285.458,0.803324
409,4732.8,271.659,284.714,0.849982
421,4872,270.726,283.96,0.896215
433,5011.2,269.8,283.197,0.938535
445,5150.4,268.884,282.426,0.968379
457,5289.6,267.975,281.649,1.008953
469,5428.8,267.076,280.865,1.057315
481,5568,266.187,280.076,1.103336
493,5707.2,265.307,279.283,1.151037
505,5846.4,264.436,278.487,1.187621
517,5985.6,263.571,277.688,1.280837
529,6124.8,262.714,276.885,1.347188
541,6264,261.863,276.083,1.39873
553,6403.2,261.017,275.277,1.45304
565,6542.4,260.176,274.472,1.522642
577,6681.6,259.341,273.665,1.698498
589,6820.8,258.51,272.859,1.789924
601,6960,257.684,272.052,1.786744
613,7099.2,256.862,271.246,1.812616
625,7238.4,256.045,270.439,1.879872
637,7377.6,255.236,269.635,1.880552
649,7516.8,254.429,268.831,2.080087
661,7656,253.6288,268.028,2.076046
673,7795.2,252.835,267.226,2.025525
685,7934.4,252.046,266.426,1.9519
697,8073.6,251.261,265.628,2.11375
709,8212.8,250.483,264.833,1.981103
721,8352,249.708,264.039,2.171125
733,8491.2,248.939,263.248,2.273825
745,8630.4,248.173,262.459,2.381266
757,8769.6,247.412,261.672,2.294503
769,8908.8,246.657,260.889,2.069291
781,9048,245.906,260.108,2.433042
793,9187.2,245.161,259.331,2.450762
805,9326.4,244.422,258.556,2.412786
817,9465.6,243.686,257.784,1.948195
829,9604.8,242.953,257.016,2.085881
841,9744,242.227,256.251,2.051141
853,9883.2,241.504,255.489,2.235546
865,10022.4,240.786,254.73,1.929868
877,10161.6,240.074,253.974,1.898462
889,10300.8,239.365,253.223,2.081562
901,10440,238.66,252.475,1.756519
913,10579.2,237.96,251.731,2.066172
925,10718.4,237.263,250.989,1.915138
937,10857.6,236.57,250.251,2.026398
949,10996.8,235.881,249.517,1.910469
961,11136,235.194,248.787,1.649741
973,11275.2,234.513,248.059,2.186549
985,11414.4,233.834,247.334,1.904374
997,11553.6,233.16,246.615,1.629757
1009,11692.8,232.49,245.899,1.327344
1021,11832,231.821,245.185,1.419308
1033,11971.2,231.156,244.475,1.64069
1045,12110.4,230.496,243.77,1.535675
1057,12249.6,229.838,243.067,0.851193
1069,12388.8,229.185,242.368,1.019459
1081,12528,228.534,241.67,0.722449
1093,12667.2,227.887,240.978,1.094297
1105,12806.4,227.242,240.288,1.040042
1117,12945.6,226.602,239.603,1.669906
1129,13084.8,225.963,238.92,1.958756
1141,13224,225.33,238.24,1.42711
1153,13363.2,224.701,237.564,1.627655
1165,13502.4,224.074,236.893,1.338267
1177,13641.6,223.45,236.224,1.403495
1189,13780.8,222.83,235.557,1.168501
1201,13920,222.212,234.895,0.996129
1213,14059.2,221.6,234.234,1.00349
1225,14198.4,220.99,233.579,1.157326
1237,14337.6,220.382,232.926,0.682246
1249,14476.8,219.777,232.277,0.889622
1261,14616,219.176,231.631,0.334837
1273,14755.2,218.58,230.988,0.226181
1285,14894.4,217.986,230.348,0.414019
1297,15033.6,217.396,229.712,1.128431
1309,15172.8,216.808,229.079,1.31437
1321,15312,216.223,228.448,1.025979
1333,15451.2,215.642,227.821,1.202543
1345,15590.4,215.066,227.198,1.532803
1357,15729.6,214.493,226.578,0.737269
1369,15868.8,213.923,225.96,0.674013
1381,16008,213.352,225.345,0.370884
1393,16147.2,212.787,224.734,0.020772
1405,16286.4,212.226,224.126,-0.332219
1417,16425.6,211.666,223.522,-0.092569
1429,16564.8,211.111,222.921,0.055038
1441,16704,210.557,222.321,0.297802
1453,16843.2,210.004,221.726,0.630304
1465,16982.4,209.457,221.133,0.519086
1477,17121.6,208.91,220.544,0.174559
1489,17260.8,208.365,219.958,0.195991
1501,17400,207.826,219.374,0.312301
1513,17539.2,207.286,218.794,0.703639
1525,17678.4,206.75,218.215,0.30691
1537,17817.6,206.217,217.641,-0.071749
1549,17956.8,205.689,217.068,-0.270947
1561,18096,205.166,216.499,-0.213683
1573,18235.2,204.648,215.933,-0.234588
1585,18374.4,204.135,215.371,0.077648
1597,18513.6,203.623,214.811,0.157083
1609,18652.8,203.115,214.256,0.082986
1621,18792,202.608,213.702,-0.105009
1633,18931.2,202.102,213.15,0.139744
1645,19070.4,201.597,212.602,0.28759
1657,19209.6,201.095,212.057,0.550006
1669,19348.8,200.594,211.514,0.188747
1681,19488,200.097,210.975,0.005565
1693,19627.2,199.602,210.437,-0.217526
1705,19766.4,199.112,209.903,0.166209
1717,19905.6,198.626,209.372,-0.097188
1729,20044.8,198.148,208.843,-0.465024
1741,20184,197.677,208.318,-0.823463
1753,20323.2,197.209,207.796,-0.263508
1765,20462.4,196.743,207.278,0.047757
1777,20601.6,196.28,206.762,0.293365
1789,20740.8,195.817,206.249,0.284308
1801,20880,195.352,205.739,0.973568
1813,21019.2,194.889,205.233,0.231416
1825,21158.4,194.427,204.729,-0.297393
1837,21297.6,193.967,204.228,-0.198464
1849,21436.8,193.51,203.728,0.202179
1861,21576,193.06,203.232,-0.078101
1873,21715.2,192.615,202.738,-0.363206
1885,21854.4,192.173,202.248,0.298201
1897,21993.6,191.731,201.761,0.827581
1909,22132.8,191.291,201.276,0.930685
1921,22272,190.851,200.793,0.252236
1933,22411.2,190.412,200.313,-0.05481
1945,22550.4,189.975,199.836,0.97973
1957,22689.6,189.538,199.361,0.858014
1969,22828.8,189.103,198.888,0.820159
1981,22968,188.672,198.418,0.803994
1993,23107.2,188.247,197.95,0.715101
2005,23246.4,187.827,197.485,0.299786
2017,23385.6,187.412,197.022,0.372038
2029,23524.8,187,196.5623,0.156086
2041,23664,186.589,196.106,0.074525
2053,23803.2,186.18,195.652,0.001451
2065,23942.4,185.773,195.199,-0.08884
2077,24081.6,185.367,194.75,-0.193922
2089,24220.8,184.963,194.304,0.271395
2101,24360,184.561,193.859,0.041472
2113,24499.2,184.161,193.418,0.385432
2125,24638.4,183.763,192.978,0.798012
2137,24777.6,183.368,192.542,0.275355
2149,24916.8,182.973,192.108,-0.246598
2161,25056,182.58,191.675,-0.391891
2173,25195.2,182.19,191.245,-0.549123
2185,25334.4,181.801,190.817,-0.196886
2197,25473.6,181.413,190.391,-0.33279
2209,25612.8,181.029,189.968,-0.022778
2221,25752,180.646,189.548,0.216251
2233,25891.2,180.266,189.128,0.486995
2245,26030.4,179.887,188.711,0.947748
2257,26169.6,179.511,188.296,1.159955
2269,26308.8,179.136,187.884,1.202666
2281,26448,178.764,187.473,1.070321
2293,26587.2,178.393,187.066,1.06874
2305,26726.4,178.025,186.66,1.101255
2317,26865.6,177.658,186.256,1.200652
2329,27004.8,177.292,185.855,1.288977
2341,27144,176.927,185.455,1.748123
2353,27283.2,176.564,185.057,1.700695
2365,27422.4,176.202,184.66,1.272573
2377,27561.6,175.841,184.266,0.689098
2389,27700.8,175.483,183.874,0.830226
2401,27840,175.125,183.484,0.463248
2413,27979.2,174.768,183.095,0.691783
2425,28118.4,174.414,182.709,1.138341
2437,28257.6,174.061,182.324,0.897671
2449,28396.8,173.709,181.941,0.960096
2461,28536,173.36,181.559,1.269573
2473,28675.2,173.012,181.18,0.815858
2485,28814.4,172.667,180.803,1.340218
2497,28953.6,172.324,180.427,1.440517
2509,29092.8,171.983,180.053,1.471567
2521,29232,171.647,179.681,1.24788
2533,29371.2,171.312,179.311,0.771312
2545,29510.4,170.98,178.942,0.862633
2557,29649.6,170.65,178.575,0.606631
2569,29788.8,170.323,178.211,1.077323
2581,29928,169.995,177.849,1.24973
2593,30067.2,169.671,177.488,1.193503
2605,30206.4,169.348,177.13,0.985025
2617,30345.6,169.027,176.774,1.425524
2629,30484.8,168.706,176.419,1.04556
2641,30624,168.386,176.065,1.16244
2653,30763.2,168.065,175.714,1.042006
2665,30902.4,167.746,175.364,0.911965
2677,31041.6,167.431,175.016,0.854339
2689,31180.8,167.114,174.67,1.206948
2701,31320,166.8,174.325,1.043926
2713,31459.2,166.488,173.981,0.957743
2725,31598.4,166.177,173.64,1.303997
2737,31737.6,165.866,173.3,1.47034
2749,31876.8,165.559,172.962,1.545915
2761,32016,165.252,172.625,1.222523
2773,32155.2,164.943,172.29,1.605553
2785,32294.4,164.637,171.956,1.600377
2797,32433.6,164.332,171.624,1.584847
2809,32572.8,164.028,171.293,1.206805
2821,32712,163.726,170.964,0.679234
2833,32851.2,163.428,170.636,0.931863
2845,32990.4,163.134,170.309,0.404668
2857,33129.6,162.841,169.985,0.798809
2869,33268.8,162.55,169.662,1.156589
2881,33408,162.26,169.3403,1.102287
2893,33547.2,161.969,169.021,1.248114
2905,33686.4,161.679,168.702,1.025968
2917,33825.6,161.39,168.386,0.923318
2929,33964.8,161.104,168.07,1.262038
2941,34104,160.823,167.756,1.21412
2953,34243.2,160.544,167.444,1.042169
2965,34382.4,160.267,167.134,1.027899
2977,34521.6,159.989,166.825,0.877253
2989,34660.8,159.71,166.518,1.250023
3001,34800,159.428,166.212,1.211177
3013,34939.2,159.147,165.908,1.209194
3025,35078.4,158.871,165.604,1.020332
3037,35217.6,158.601,165.302,0.755987
3049,35356.8,158.335,165.002,0.720719
3061,35496,158.072,164.703,0.835772
3073,35635.2,157.811,164.407,0.804434
3085,35774.4,157.548,164.112,0.346852
3097,35913.6,157.278,163.818,0.637345
3109,36052.8,157.002,163.526,0.582009
3121,36192,156.722,163.234,0.637699
3133,36331.2,156.441,162.943,0.967675
3145,36470.4,156.167,162.652,1.076295
3157,36609.6,155.902,162.363,1.086887
3169,36748.8,155.645,162.076,0.896979
3181,36888,155.392,161.789,1.097164
3193,37027.2,155.143,161.505,0.876896
3205,37166.4,154.898,161.222,0.958885
3217,37305.6,154.652,160.942,0.767677
3229,37444.8,154.402,160.663,0.59572
3241,37584,154.145,160.3841,0.866445
3253,37723.2,153.882,160.107,0.876624
3265,37862.4,153.616,159.83,0.64276
3277,38001.6,153.352,159.553,0.695823
3289,38140.8,153.095,159.279,0.715032
3301,38280,152.847,159.005,0.855209
3313,38419.2,152.604,158.732,0.752401
3325,38558.4,152.366,158.461,0.532404
3337,38697.6,152.126,158.192,0.666212
3349,38836.8,151.879,157.924,1.008657
3361,38976,151.622,157.656,0.930717
3373,39115.2,151.355,157.389,0.635224
3385,39254.4,151.083,157.122,0.604531
3397,39393.6,150.811,156.854,0.671742
3409,39532.8,150.543,156.587,0.69949
3421,39672,150.283,156.32,1.110792
3433,39811.2,150.03,156.053,1.311829
3445,39950.4,149.782,155.788,0.982147
3457,40089.6,149.537,155.523,0.727697
3469,40228.8,149.296,155.26,0.56099
3481,40368,149.061,154.997,0.779619
3493,40507.2,148.833,154.737,0.690534
3505,40646.4,148.607,154.478,0.559809
3517,40785.6,148.382,154.22,0.701292
3529,40924.8,148.158,153.964,0.641496
3541,41064,147.936,153.709,0.758493
3553,41203.2,147.711,153.455,0.92391
3565,41342.4,147.482,153.203,0.836534
3577,41481.6,147.248,152.953,0.769814
3589,41620.8,147.012,152.703,0.933857
3601,41760,146.778,152.454,0.817019
3613,41899.2,146.551,152.205,0.854692
3625,42038.4,146.333,151.958,0.616161
3637,42177.6,146.117,151.712,0.575878
3649,42316.8,145.906,151.467,0.597527
3661,42456,145.693,151.225,0.468142
3673,42595.2,145.472,150.983,0.441743
3685,42734.4,145.242,150.742,0.675727
3697,42873.6,145.004,150.501,0.681878
3709,43012.8,144.762,150.261,0.839549
3721,43152,144.521,150.02,0.722495
3733,43291.2,144.285,149.781,0.735363
3745,43430.4,144.056,149.541,1.081619
3757,43569.6,143.834,149.302,0.919299
3769,43708.8,143.609,149.064,0.681791
3781,43848,143.377,148.826,0.780453
3793,43987.2,143.141,148.588,0.923144
3805,44126.4,142.9,148.35,0.862492
3817,44265.6,142.661,148.114,0.675194
3829,44404.8,142.427,147.875,0.723889
3841,44544,142.201,147.638,0.710292
3853,44683.2,141.986,147.402,0.520193
3865,44822.4,141.783,147.166,0.49138
3877,44961.6,141.586,146.933,0.713451
3889,45100.8,141.392,146.702,1.025919
3901,45240,141.192,146.472,1.022313
3913,45379.2,140.986,146.243,0.973142
3925,45518.4,140.777,146.015,0.911577
3937,45657.6,140.569,145.788,0.849623
3949,45796.8,140.369,145.562,0.814401
3961,45936,140.177,145.338,0.979713
3973,46075.2,139.991,145.115,1.003437
3985,46214.4,139.802,144.893,0.865707
3997,46353.6,139.606,144.673,0.750877
4009,46492.8,139.405,144.454,0.874154
4021,46632,139.203,144.235,0.910743
4033,46771.2,139.004,144.018,0.810507
4045,46910.4,138.811,143.803,0.831391
4057,47049.6,138.623,143.587,0.755956
4069,47188.8,138.431,143.373,0.708279
4081,47328,138.232,143.16,0.620597
4093,47467.2,138.028,142.948,0.656113
4105,47606.4,137.822,142.735,0.831016
4117,47745.6,137.618,142.524,0.765108
4129,47884.8,137.421,142.312,0.85398
4141,48024,137.232,142.101,0.872267
4153,48163.2,137.05,141.893,0.628679
4165,48302.4,136.866,141.684,0.455752
4177,48441.6,136.677,141.477,0.570038
4189,48580.8,136.482,141.27,0.557555
4201,48720,136.289,141.064,0.65164
4213,48859.2,136.099,140.859,0.444314
4225,48998.4,135.918,140.655,0.590468
4237,49137.6,135.746,140.452,0.450658
4249,49276.8,135.577,140.251,0.556624
4261,49416,135.407,140.051,0.538352
4273,49555.2,135.235,139.852,0.499363
4285,49694.4,135.062,139.654,0.48125
4297,49833.6,134.893,139.458,0.600107
4309,49972.8,134.73,139.262,0.589834
4321,50112,134.572,139.069,0.78326
4333,50251.2,134.414,138.877,0.539587
4345,50390.4,134.251,138.686,0.287619
4357,50529.6,134.0857,138.497,0.298579
4369,50668.8,133.92,138.308,0.565444
4381,50808,133.76,138.121,0.507057
4393,50947.2,133.605,137.936,0.36709
4405,51086.4,133.448,137.752,0.573129
4417,51225.6,133.284,137.568,0.618163
4429,51364.8,133.115,137.385,0.523975
4441,51504,132.941,137.203,0.479403
4453,51643.2,132.768,137.021,0.389092
4465,51782.4,132.603,136.84,0.561489
4477,51921.6,132.445,136.66,0.417188
4489,52060.8,132.296,136.481,0.234714
4501,52200,132.143,136.303,0.342927
4513,52339.2,131.983,136.126,0.306084
4525,52478.4,131.813,135.95,0.310862
4537,52617.6,131.639,135.773,0.304558
4549,52756.8,131.464,135.597,0.324946
4561,52896,131.292,135.42,0.500723
4573,53035.2,131.127,135.245,0.43736
4585,53174.4,130.971,135.07,0.558694
4597,53313.6,130.823,134.897,0.441914
4609,53452.8,130.675,134.724,0.097499
4621,53592,130.523,134.553,0.201565
4633,53731.2,130.362,134.381,0.093425
4645,53870.4,130.197,134.211,0.099108
4657,54009.6,130.031,134.04,0.15387
4669,54148.8,129.868,133.87,0.436155
4681,54288,129.713,133.701,0.352406
4693,54427.2,129.566,133.531,0.346855
4705,54566.4,129.429,133.364,0.411959
4717,54705.6,129.292,133.198,0.439134
4729,54844.8,129.148,133.033,0.157687
4741,54984,128.993,132.868,0.222256
4753,55123.2,128.834,132.705,0.338258
4765,55262.4,128.673,132.54,0.350404
4777,55401.6,128.513,132.376,0.434709
4789,55540.8,128.359,132.212,0.345666
4801,55680,128.212,132.049,0.353806
4813,55819.2,128.076,131.888,0.389219
4825,55958.4,127.942,131.727,0.233692
4837,56097.6,127.801,131.567,0.362079
4849,56236.8,127.651,131.408,0.226809
4861,56376,127.493,131.249,0.151705
4873,56515.2,127.331,131.091,0.145607
4885,56654.4,127.17,130.931,0.314277
4897,56793.6,127.012,130.773,0.185805
4909,56932.8,126.86,130.614,0.140025
4921,57072,126.713,130.455,0.194037
4933,57211.2,126.573,130.298,0.076269
4945,57350.4,126.439,130.141,0.160856
4957,57489.6,126.313,129.985,0.231952
4969,57628.8,126.19,129.831,0.264662
4981,57768,126.062,129.678,0.200928
4993,57907.2,125.923,129.526,0.167453
5005,58046.4,125.777,129.373,0.167602
5017,58185.6,125.63,129.222,0.184745
5029,58324.8,125.483,129.07,0.217008
5041,58464,125.341,128.92,0.181504
5053,58603.2,125.203,128.769,0.274283
5065,58742.4,125.071,128.619,0.391709
5077,58881.6,124.946,128.47,0.370853
5089,59020.8,124.83,128.323,0.216313
5101,59160,124.717,128.177,0.091289
5113,59299.2,124.6,128.032,0.171417
5125,59438.4,124.473,127.889,0.251129
5137,59577.6,124.338,127.745,0.311346
5149,59716.8,124.198,127.602,0.210323
5161,59856,124.058,127.459,0.110515
5173,59995.2,123.921,127.316,0.091758
5185,60134.4,123.787,127.173,0.127628
5197,60273.6,123.653,127.031,0.128848
5209,60412.8,123.517,126.889,0.152304
5221,60552,123.381,126.748,0.183588
5233,60691.2,123.249,126.607,0.096605
5245,60830.4,123.127,126.466,0.056842
5257,60969.6,123.018,126.327,0.118242
5269,61108.8,122.921,126.19,0.18365
5281,61248,122.832,126.054,0.151679
5293,61387.2,122.749,125.92,0.080234
5305,61526.4,122.661,125.788,-0.006155
5317,61665.6,122.561,125.659,0.120403
5329,61804.8,122.45,125.529,0.065574
5341,61944,122.329,125.401,0.054688
5353,62083.2,122.206,125.273,0.003087
5365,62222.4,122.084,125.145,-0.035954
5377,62361.6,121.964,125.017,-0.007028
5389,62500.8,121.847,124.89,0.071739
5401,62640,121.731,124.764,0.011544
5413,62779.2,121.614,124.638,0.045083
5425,62918.4,121.498,124.512,0.101516
5437,63057.6,121.388,124.387,0.121067
5449,63196.8,121.288,124.262,-0.033326
5461,63336,121.194,124.139,0.062746
5473,63475.2,121.098,124.017,0.048651
5485,63614.4,120.993,123.896,0.059728
5497,63753.6,120.879,123.776,0.104531
5509,63892.8,120.76,123.655,0.129557
5521,64032,120.639,123.535,-0.038301
5533,64171.2,120.521,123.414,-0.107891
5545,64310.4,120.408,123.294,0.023015
5557,64449.6,120.303,123.174,0.012227
5569,64588.8,120.207,123.056,-0.183259
5581,64728,120.114,122.938,-0.217568
5593,64867.2,120.016,122.821,-0.226277
5605,65006.4,119.912,122.705,-0.24498
5617,65145.6,119.801,122.59,-0.154117
5629,65284.8,119.688,122.474,-0.109389
5641,65424,119.576,122.358,-0.003716
5653,65563.2,119.47,122.243,-0.146161
5665,65702.4,119.371,122.13,-0.135676
5677,65841.6,119.282,122.016,-0.156112
5689,65980.8,119.197,121.903,-0.144758
5701,66120,119.106,121.792,-0.191617
5713,66259.2,119.005,121.681,-0.186587
5725,66398.4,118.896,121.571,-0.194762
5737,66537.6,118.784,121.459,-0.16443
5749,66676.8,118.671,121.349,-0.215463
5761,66816,118.562,121.239,-0.279812
5773,66955.2,118.458,121.128,-0.346558
5785,67094.4,118.361,121.018,-0.277039
5797,67233.6,118.273,120.908,-0.262521
5809,67372.8,118.194,120.8,-0.259529
5821,67512,118.117,120.693,-0.273865
5833,67651.2,118.034,120.588,-0.33129
5845,67790.4,117.942,120.482,-0.278001
5857,67929.6,117.844,120.378,-0.179766
5869,68068.8,117.743,120.274,-0.176122
5881,68208,117.643,120.17,-0.251028
5893,68347.2,117.546,120.066,-0.296449
5905,68486.4,117.456,119.962,-0.24237
5917,68625.6,117.371,119.859,-0.269545
5929,68764.8,117.294,119.758,-0.284548
5941,68904,117.227,119.657,-0.337377
5953,69043.2,117.162,119.559,-0.356804
5965,69182.4,117.094,119.461,-0.310146
5977,69321.6,117.017,119.365,-0.290235
5989,69460.8,116.934,119.269,-0.292461
6001,69600,116.846,119.173,-0.29177
6013,69739.2,116.759,119.079,-0.256042
6025,69878.4,116.677,118.984,-0.304696
6037,70017.6,116.603,118.89,-0.378258
6049,70156.8,116.534,118.797,-0.333737
6061,70296,116.464,118.705,-0.274235
6073,70435.2,116.389,118.614,-0.255072
6085,70574.4,116.311,118.5241,-0.3235
6097,70713.6,116.233,118.434,-0.336889
6109,70852.8,116.16,118.344,-0.38931
6121,70992,116.094,118.256,-0.388071
6133,71131.2,116.035,118.169,-0.373903
6145,71270.4,115.98,118.084,-0.330035
6157,71409.6,115.932,117.999,-0.364037
6169,71548.8,115.885,117.916,-0.387482
6181,71688,115.831,117.834,-0.344127
6193,71827.2,115.764,117.754,-0.2857
6205,71966.4,115.684,117.673,-0.31945
6217,72105.6,115.594,117.593,-0.330532
6229,72244.8,115.5,117.511,-0.323043
6241,72384,115.403,117.429,-0.397901
6253,72523.2,115.309,117.347,-0.412298
6265,72662.4,115.219,117.265,-0.386818
6277,72801.6,115.134,117.182,-0.39354
6289,72940.8,115.053,117.099,-0.339326
6301,73080,114.974,117.016,-0.343364
6313,73219.2,114.897,116.933,-0.374951
6325,73358.4,114.824,116.851,-0.397385
6337,73497.6,114.756,116.77,-0.381296
6349,73636.8,114.692,116.689,-0.341754
6361,73776,114.625,116.608,-0.32799
6373,73915.2,114.553,116.529,-0.324306
6385,74054.4,114.477,116.449,-0.300712
6397,74193.6,114.401,116.369,-0.310983
6409,74332.8,114.329,116.29,-0.330783
6421,74472,114.269,116.212,-0.332746
6433,74611.2,114.218,116.134,-0.351089
6445,74750.4,114.166,116.057,-0.361105
6457,74889.6,114.108,115.982,-0.378283
6469,75028.8,114.041,115.907,-0.358495
6481,75168,113.966,115.831,-0.364946
6493,75307.2,113.888,115.757,-0.363641
6505,75446.4,113.809,115.681,-0.349491
6517,75585.6,113.735,115.606,-0.334429
6529,75724.8,113.667,115.532,-0.330415
6541,75864,113.61,115.457,-0.343449
6553,76003.2,113.56,115.384,-0.343922
6565,76142.4,113.51,115.311,-0.35877
6577,76281.6,113.456,115.24,-0.365539
6589,76420.8,113.398,115.169,-0.392997
6601,76560,113.337,115.097,-0.401588
6613,76699.2,113.281,115.028,-0.374176
6625,76838.4,113.229,114.959,-0.36475
6637,76977.6,113.181,114.89,-0.374233
6649,77116.8,113.134,114.823,-0.389433
6661,77256,113.089,114.756,-0.413364
6673,77395.2,113.048,114.691,-0.407838
6685,77534.4,113.012,114.627,-0.396585
6697,77673.6,112.978,114.5633,-0.391342
6709,77812.8,112.942,114.502,-0.368019
6721,77952,112.901,114.44,-0.339254
6733,78091.2,112.86,114.38,-0.347836
6745,78230.4,112.82,114.32,-0.353107
6757,78369.6,112.784,114.262,-0.370747
6769,78508.8,112.748,114.205,-0.37512
6781,78648,112.714,114.149,-0.378288
6793,78787.2,112.679,114.093,-0.389006
6805,78926.4,112.648,114.039,-0.395198
6817,79065.6,112.614,113.986,-0.372977
6829,79204.8,112.576,113.933,-0.369791
6841,79344,112.533,113.881,-0.396543
6853,79483.2,112.487,113.829,-0.399108
6865,79622.4,112.442,113.777,-0.385634
6877,79761.6,112.406,113.725,-0.396675
6889,79900.8,112.377,113.675,-0.40984
6901,80040,112.35,113.626,-0.40665
6913,80179.2,112.318,113.577,-0.402546
6925,80318.4,112.274,113.529,-0.413902
6937,80457.6,112.219,113.481,-0.412527
6949,80596.8,112.155,113.432,-0.40842
6961,80736,112.086,113.383,-0.393689
6973,80875.2,112.017,113.332,-0.385025
6985,81014.4,111.95,113.282,-0.389414
6997,81153.6,111.892,113.23,-0.381961
7009,81292.8,111.848,113.179,-0.383012
7021,81432,111.818,113.129,-0.38923
7033,81571.2,111.796,113.079,-0.379938
7045,81710.4,111.779,113.03,-0.399848
7057,81849.6,111.763,112.983,-0.397243
7069,81988.8,111.747,112.937,-0.381234
7081,82128,111.724,112.893,-0.378003
7093,82267.2,111.692,112.849,-0.386958
7105,82406.4,111.649,112.805,-0.387689
7117,82545.6,111.6,112.761,-0.396345
7129,82684.8,111.548,112.716,-0.393118
7141,82824,111.504,112.673,-0.388968
7153,82963.2,111.468,112.629,-0.384513
7165,83102.4,111.441,112.586,-0.401116
7177,83241.6,111.419,112.543,-0.391772
7189,83380.8,111.402,112.501,-0.40197
7201,83520,111.388,112.461,-0.410947
7213,83659.2,111.3711,112.421,-0.405562
7225,83798.4,111.35,112.384,-0.402002
7237,83937.6,111.323,112.345,-0.394774
7249,84076.8,111.293,112.308,-0.400692
7261,84216,111.262,112.27,-0.411201
7273,84355.2,111.236,112.233,-0.401518
7285,84494.4,111.213,112.197,-0.395806
7297,84633.6,111.194,112.161,-0.412442
7309,84772.8,111.177,112.126,-0.409789
7321,84912,111.161,112.092,-0.41571
7333,85051.2,111.142,112.059,-0.400183
7345,85190.4,111.119,112.026,-0.40702
7357,85329.6,111.09,111.994,-0.414778
7369,85468.8,111.061,111.961,-0.409052
7381,85608,111.034,111.9289,-0.427241
7393,85747.2,111.01,111.897,-0.420282
7405,85886.4,110.99,111.864,-0.42253
7417,86025.6,110.972,111.834,-0.40298
7429,86164.8,110.954,111.804,-0.411049
7441,86304,110.939,111.774,-0.412981
7453,86443.2,110.924,111.745,-0.409075
7465,86582.4,110.91,111.716,-0.420526
7477,86721.6,110.896,111.688,-0.424296
7489,86860.8,110.882,111.661,-0.428067
7501,87000,110.868,111.634,-0.418929
7513,87139.2,110.853,111.608,-0.433458
7525,87278.4,110.839,111.582,-0.456294
7537,87417.6,110.823,111.556,-0.466833
7549,87556.8,110.807,111.532,-0.470608
7561,87696,110.789,111.507,-0.48669
7573,87835.2,110.773,111.482,-0.498776
7585,87974.4,110.758,111.458,-0.497324
7597,88113.6,110.745,111.434,-0.480482
7609,88252.8,110.732,111.412,-0.487641
7621,88392,110.72,111.389,-0.4791
7633,88531.2,110.707,111.367,-0.480101
7645,88670.4,110.694,111.346,-0.486026
7657,88809.6,110.678,111.324,-0.476862
7669,88948.8,110.662,111.302,-0.48125
7681,89088,110.647,111.281,-0.478551
7693,89227.2,110.635,111.261,-0.486634
7705,89366.4,110.624,111.241,-0.475609
7717,89505.6,110.613,111.221,-0.485234
7729,89644.8,110.601,111.201,-0.479139
7741,89784,110.589,111.181,-0.462863
7753,89923.2,110.575,111.163,-0.4657
7765,90062.4,110.561,111.144,-0.46268
7777,90201.6,110.545,111.125,-0.461817
7789,90340.8,110.532,111.107,-0.465891
7801,90480,110.522,111.089,-0.470888
7813,90619.2,110.512,111.071,-0.463543
7825,90758.4,110.503,111.054,-0.472859
7837,90897.6,110.494,111.036,-0.470762
7849,91036.8,110.486,111.02,-0.465878
7861,91176,110.477,111.002,-0.478287
7873,91315.2,110.467,110.988,-0.467531
7885,91454.4,110.456,110.972,-0.479012
7897,91593.6,110.445,110.955,-0.469494
7909,91732.8,110.435,110.94,-0.493023
7921,91872,110.425,110.925,-0.475469
7933,92011.2,110.413,110.91,-0.478302
7945,92150.4,110.401,110.895,-0.475263
7957,92289.6,110.389,110.88,-0.495402
7969,92428.8,110.378,110.866,-0.488347
7981,92568,110.367,110.851,-0.483761
7993,92707.2,110.354,110.837,-0.481958
8005,92846.4,110.344,110.822,-0.47799
8017,92985.6,110.334,110.808,-0.492572
8029,93124.8,110.323,110.795,-0.489218
8041,93264,110.312,110.781,-0.491124
8053,93403.2,110.302,110.767,-0.478492
8065,93542.4,110.292,110.7535,-0.476683
8077,93681.6,110.281,110.74,-0.489106
8089,93820.8,110.27,110.726,-0.498436
8101,93960,110.261,110.714,-0.500338
8113,94099.2,110.252,110.701,-0.489863
8125,94238.4,110.242,110.688,-0.488672
8137,94377.6,110.233,110.675,-0.489955
8149,94516.8,110.253,110.663,-0.506715
8161,94656,110.644,110.656,-0.538625
8173,94795.2,111.445,110.669,-0.679715
8185,94934.4,112.304,110.715,-0.82832
8197,95073.6,113.078,110.791,-0.976606
8209,95212.8,113.761,110.895,-1.092056
8221,95352,114.384,111.023,-1.208662
8233,95491.2,114.9755,111.172,-1.292466
8245,95630.4,115.556,111.34,-1.386991
8257,95769.6,116.133,111.5268,-1.471547
8269,95908.8,116.7116,111.729,-1.560316
8281,96048,117.292,111.948,-1.607532
8293,96187.2,117.874,112.182,-1.692382
8305,96326.4,118.455,112.432,-1.743755
8317,96465.6,119.036,112.696,-1.809089
8329,96604.8,119.618,112.974,-1.871271
8341,96744,120.2,113.265,-1.934244
8353,96883.2,120.783,113.569,-1.981319
8365,97022.4,121.366,113.883,-2.034403
8377,97161.6,121.949,114.211,-2.073489
8389,97300.8,122.53,114.55,-2.121873
8401,97440,123.112,114.899,-2.176194
8413,97579.2,123.69,115.258,-2.222617
8425,97718.4,124.271,115.626,-2.260601
8437,97857.6,124.854,116.003,-2.315262
8449,97996.8,125.436,116.39,-2.335318
8461,98136,126.017,116.785,-2.368183
8473,98275.2,126.597,117.187,-2.404322
8485,98414.4,127.177,117.598,-2.44042
8497,98553.6,127.758,118.016,-2.467413
8509,98692.8,128.34,118.441,-2.509683
8521,98832,128.922,118.873,-2.526772
8533,98971.2,129.503,119.311,-2.54367
8545,99110.4,130.082,119.754,-2.583955
8557,99249.6,130.661,120.204,-2.606217
8569,99388.8,131.2405,120.66,-2.619033
8581,99528,131.82,121.12,-2.640359
8593,99667.2,132.401,121.586,-2.663207
8605,99806.4,132.982,122.056,-2.66782
8617,99945.6,133.562,122.531,-2.692627
8629,100084.8,134.142,123.009,-2.720372
8641,100224,134.723,123.493,-2.724031
8653,100363.2,135.304,123.981,-2.748563
8665,100502.4,135.883,124.472,-2.753174
8677,100641.6,136.466,124.967,-2.771766
8689,100780.8,137.046,125.466,-2.783754
8701,100920,137.627,125.968,-2.795087
8713,101059.2,138.207,126.474,-2.800171
8725,101198.4,138.788,126.982,-2.811321
8737,101337.6,139.368,127.494,-2.811296
8749,101476.8,139.949,128.008,-2.822016
8761,101616,140.528,128.525,-2.835133
8773,101755.2,141.107,129.0436,-2.84432
8785,101894.4,141.686,129.567,-2.841643
8797,102033.6,142.265,130.092,-2.858881
8809,102172.8,142.845,130.618,-2.849104
8821,102312,143.426,131.146,-2.855102
8833,102451.2,144.007,131.676,-2.869699
8845,102590.4,144.588,132.208,-2.868316
8857,102729.6,145.169,132.744,-2.864747
8869,102868.8,145.748,133.28,-2.881848
8881,103008,146.329,133.819,-2.887883
8893,103147.2,146.908,134.359,-2.871791
8905,103286.4,147.49,134.899,-2.893496
8917,103425.6,148.07,135.443,-2.880388
8929,103564.8,148.65,135.989,-2.87553
8941,103704,149.23,136.535,-2.879666
8953,103843.2,149.81,137.082,-2.873816
8965,103982.4,150.391,137.631,-2.878985
8977,104121.6,150.971,138.18,-2.887543
8989,104260.8,151.551,138.732,-2.885371
9001,104400,152.131,139.285,-2.866637
9013,104539.2,152.71,139.839,-2.874116
9025,104678.4,153.291,140.393,-2.881586
9037,104817.6,153.872,140.948,-2.863836
9049,104956.8,154.451,141.506,-2.869752
9061,105096,155.032,142.065,-2.863635
9073,105235.2,155.613,142.623,-2.851725
9085,105374.4,156.191,143.182,-2.854374
9097,105513.6,156.771,143.743,-2.86639
9109,105652.8,157.352,144.304,-2.853093
9121,105792,157.933,144.867,-2.853983
9133,105931.2,158.513,145.43,-2.847844
9145,106070.4,159.092,145.993,-2.841026
9157,106209.6,159.673,146.559,-2.851222
9169,106348.8,160.252,147.124,-2.845696
9181,106488,160.833,147.69,-2.828279
9193,106627.2,161.412,148.257,-2.833033
9205,106766.4,161.993,148.826,-2.818733
9217,106905.6,162.573,149.393,-2.816629
9229,107044.8,163.153,149.961,-2.803982
9241,107184,163.734,150.531,-2.798256
9253,107323.2,164.315,151.102,-2.799435
9265,107462.4,164.897,151.672,-2.791361
9277,107601.6,165.479,152.244,-2.786259
9289,107740.8,166.058,152.816,-2.774652
9301,107880,166.637,153.388,-2.761917
9313,108019.2,167.214,153.961,-2.769299
9325,108158.4,167.793,154.536,-2.748237
9337,108297.6,168.373,155.109,-2.757825
9349,108436.8,168.952,155.683,-2.735505
9361,108576,169.532,156.259,-2.721919
9373,108715.2,170.114,156.833,-2.713673
9385,108854.4,170.694,157.409,-2.705008
9397,108993.6,171.274,157.984,-2.693801
9409,109132.8,171.857,158.56,-2.699939
9421,109272,172.438,159.137,-2.687167
9433,109411.2,173.016,159.714,-2.665775
9445,109550.4,173.593,160.292,-2.668697
9457,109689.6,174.173,160.87,-2.651006
9469,109828.8,174.7535,161.447,-2.626406
9481,109968,175.333,162.025,-2.632495
9493,110107.2,175.913,162.603,-2.616706
9505,110246.4,176.493,163.181,-2.599857
9517,110385.6,177.074,163.761,-2.581932
9529,110524.8,177.655,164.34,-2.56619
9541,110664,178.235,164.919,-2.554243
9553,110803.2,178.818,165.498,-2.54075
9565,110942.4,179.4,166.079,-2.52733
9577,111081.6,179.979,166.66,-2.506664
9589,111220.8,180.557,167.24,-2.495939
9601,111360,181.135,167.82,-2.485058
9613,111499.2,181.713,168.402,-2.47809
9625,111638.4,182.295,168.982,-2.46938
9637,111777.6,182.875,169.564,-2.447583
9649,111916.8,183.456,170.145,-2.453914
9661,112056,184.035,170.726,-2.444006
9673,112195.2,184.616,171.308,-2.418643
9685,112334.4,185.194,171.89,-2.402391
9697,112473.6,185.775,172.472,-2.389575
9709,112612.8,186.355,173.055,-2.362534
9721,112752,186.936,173.637,-2.379104
9733,112891.2,187.517,174.218,-2.354694
9745,113030.4,188.098,174.8,-2.352153
9757,113169.6,188.677,175.384,-2.30046
9769,113308.8,189.253,175.967,-2.279948
9781,113448,189.833,176.549,-2.256457
9793,113587.2,190.414,177.133,-2.236813
9805,113726.4,190.995,177.715,-2.245173
9817,113865.6,191.578,178.298,-2.204193
9829,114004.8,192.157,178.881,-2.189858
9841,114144,192.737,179.464,-2.183683
9853,114283.2,193.316,180.047,-2.186696
9865,114422.4,193.896,180.63,-2.126219
9877,114561.6,194.475,181.213,-2.118518
9889,114700.8,195.054,181.796,-2.113248
9901,114840,195.634,182.38,-2.075579
9913,114979.2,196.215,182.963,-2.076268
9925,115118.4,196.796,183.547,-2.068138
9937,115257.6,197.377,184.13,-2.0304
9949,115396.8,197.959,184.714,-2.033784
9961,115536,198.537,185.297,-2.014907
9973,115675.2,199.117,185.882,-1.982438
9985,115814.4,199.697,186.466,-1.980606
9997,115953.6,200.275,187.049,-1.953256
10009,116092.8,200.856,187.633,-1.888411
10021,116232,201.438,188.217,-1.93516
10033,116371.2,202.017,188.801,-1.986196
10045,116510.4,202.597,189.385,-1.89359
10057,116649.6,203.177,189.969,-1.910582
10069,116788.8,203.758,190.552,-1.923532
10081,116928,204.339,191.137,-1.920892
10093,117067.2,204.918,191.722,-1.82115
10105,117206.4,205.499,192.306,-1.734976
10117,117345.6,206.078,192.891,-1.753625
10129,117484.8,206.658,193.476,-1.756364
10141,117624,207.238,194.06,-1.713077
10153,117763.2,207.819,194.645,-1.759148
10165,117902.4,208.398,195.23,-1.799465
10177,118041.6,208.977,195.815,-1.783919
10189,118180.8,209.558,196.399,-1.703084
10201,118320,210.139,196.985,-1.665478
10213,118459.2,210.719,197.571,-1.627387
10225,118598.4,211.297,198.157,-1.549522
10237,118737.6,211.877,198.742,-1.684143
10249,118876.8,212.457,199.328,-1.679885
10261,119016,213.037,199.915,-1.687321
10273,119155.2,213.6164,200.501,-1.666332
10285,119294.4,214.197,201.087,-1.677261
10297,119433.6,214.777,201.675,-1.651075
10309,119572.8,215.358,202.261,-1.685201
10321,119712,215.937,202.849,-1.633319
10333,119851.2,216.516,203.435,-1.58649
10345,119990.4,217.097,204.024,-1.590822
10357,120129.6,217.676,204.612,-1.534928
10369,120268.8,218.256,205.199,-1.417077
10381,120408,218.836,205.786,-1.351986
10393,120547.2,219.416,206.374,-1.278058
10405,120686.4,219.995,206.962,-1.345347
10417,120825.6,220.576,207.55,-1.36732
10429,120964.8,221.155,208.138,-1.432079
10441,121104,221.736,208.726,-1.482454
10453,121243.2,222.315,209.314,-1.486379
10465,121382.4,222.897,209.903,-1.56882
10477,121521.6,223.477,210.491,-1.532624
10489,121660.8,224.058,211.079,-1.482637
10501,121800,224.637,211.669,-1.405031
10513,121939.2,225.218,212.256,-1.324898
10525,122078.4,225.799,212.846,-1.363884
10537,122217.6,226.379,213.435,-1.520486
10549,122356.8,226.96,214.025,-1.529111
10561,122496,227.539,214.614,-1.320496
10573,122635.2,228.119,215.203,-1.235992
10585,122774.4,228.697,215.793,-1.153507
10597,122913.6,229.277,216.383,-1.211273
10609,123052.8,229.859,216.973,-1.204266
10621,123192,230.438,217.562,-1.272959
10633,123331.2,231.018,218.152,-1.295386
10645,123470.4,231.597,218.742,-1.209925
10657,123609.6,232.177,219.332,-1.19364
10669,123748.8,232.756,219.921,-1.056265
10681,123888,233.335,220.511,-1.140064
10693,124027.2,233.915,221.101,-1.088282
10705,124166.4,234.496,221.69,-1.122052
10717,124305.6,235.076,222.279,-0.928111
10729,124444.8,235.656,222.87,-0.944247
10741,124584,236.236,223.46,-0.897661
10753,124723.2,236.816,224.05,-0.903598
10765,124862.4,237.395,224.64,-0.912795
10777,125001.6,237.973,225.229,-0.860496
10789,125140.8,238.553,225.819,-0.849398
10801,125280,239.135,226.409,-0.988946
10813,125419.2,239.715,226.999,-0.861175
10825,125558.4,240.297,227.589,-0.807322
10837,125697.6,240.878,228.179,-0.846571
10849,125836.8,241.457,228.769,-0.985811
10861,125976,242.035,229.359,-1.01732
10873,126115.2,242.615,229.949,-1.016618
10885,126254.4,243.196,230.538,-1.025232
10897,126393.6,243.776,231.129,-0.892505
10909,126532.8,244.359,231.719,-0.928353
10921,126672,244.94,232.309,-0.924001
10933,126811.2,245.519,232.9,-0.890181
10945,126950.4,246.099,233.491,-0.9144
10957,127089.6,246.68,234.08,-0.777742
10969,127228.8,247.259,234.67,-0.775307
10981,127368,247.837,235.261,-0.734885
10993,127507.2,248.417,235.852,-0.651353
11005,127646.4,248.998,236.444,-0.729401
11017,127785.6,249.58,237.033,-0.843073
11029,127924.8,250.16,237.625,-0.935139
11041,128064,250.74,238.216,-0.827845
11053,128203.2,251.319,238.807,-0.810272
11065,128342.4,251.897,239.398,-0.649083
11077,128481.6,252.475,239.989,-0.676116
11089,128620.8,253.054,240.578,-0.54505
11101,128760,253.635,241.169,-0.287468
11113,128899.2,254.2167,241.7598,-0.216382
11125,129038.4,254.797,242.35,-0.396479
11137,129177.6,255.379,242.94,-0.540043
11149,129316.8,255.957,243.531,-0.576848
11161,129456,256.536,244.122,-0.622083
11173,129595.2,257.116,244.712,-0.555651
11185,129734.4,257.695,245.303,-0.259075
11197,129873.6,258.276,245.892,-0.268753
11209,130012.8,258.858,246.483,-0.395705
11221,130152,259.438,247.074,-0.316194
11233,130291.2,260.016,247.664,-0.216455
11245,130430.4,260.595,248.254,-0.132161
11257,130569.6,261.175,248.845,-0.258181
11269,130708.8,261.753,249.435,-0.118151
11281,130848,262.335,250.024,-0.208977
11293,130987.2,262.915,250.614,-0.125589
11305,131126.4,263.496,251.203,0.078345
11317,131265.6,264.076,251.794,-0.141573
11329,131404.8,264.657,252.384,-0.179342
11341,131544,265.24,252.974,-0.130004
11353,131683.2,265.821,253.564,-0.214459
11365,131822.4,266.401,254.154,-0.161914
11377,131961.6,266.98,254.746,-0.235826
11389,132100.8,267.562,255.336,-0.011426
11401,132240,268.144,255.927,-0.003805
11413,132379.2,268.723,256.518,0.095218
11425,132518.4,269.303,257.109,0.126234
11437,132657.6,269.882,257.7,0.321792
11449,132796.8,270.461,258.291,0.193327
11461,132936,271.038,258.882,0.078449
11473,133075.2,271.618,259.473,0.250085
11485,133214.4,272.199,260.065,0.342741
11497,133353.6,272.779,260.654,0.424978
11509,133492.8,273.358,261.246,0.679204
11521,133632,273.942,261.836,0.911972
11533,133771.2,274.519,262.427,0.937881
11545,133910.4,275.099,263.017,0.891171
11557,134049.6,275.676,263.608,0.816618
11569,134188.8,276.255,264.199,0.901767
11581,134328,276.834,264.789,1.023591
11593,134467.2,277.414,265.379,0.872523
11605,134606.4,277.995,265.969,0.825383
11617,134745.6,278.575,266.559,0.736257
11629,134884.8,279.157,267.148,0.915711
11641,135024,279.739,267.739,0.790894
11653,135163.2,280.318,268.329,0.659357
11665,135302.4,280.898,268.92,0.591648
11677,135441.6,281.477,269.51,0.58104
11689,135580.8,282.057,270.099,0.913683
11701,135720,282.638,270.689,0.576546
11713,135859.2,283.219,271.279,0.659135
11725,135998.4,283.799,271.87,0.689748
11737,136137.6,284.378,272.459,0.933722
11749,136276.8,284.959,273.05,1.112299
11761,136416,285.539,273.639,0.99615
11773,136555.2,286.118,274.23,0.775235
11785,136694.4,286.697,274.82,0.623407
11797,136833.6,287.279,275.41,0.551246
11809,136972.8,287.86,275.999,0.942736
11821,137112,288.443,276.59,1.094477
11833,137251.2,289.02,277.18,0.973637
11845,137390.4,289.601,277.772,0.832613
11857,137529.6,290.18,278.361,1.238865
11869,137668.8,290.757,278.951,1.038958
11881,137808,291.337,279.541,1.118958
11893,137947.2,291.916,280.131,1.007676
11905,138086.4,292.496,280.722,1.041407
11917,138225.6,293.077,281.311,1.058489
11929,138364.8,293.657,281.901,1.182285
11941,138504,294.24,282.491,1.012469
11953,138643.2,294.821,283.081,1.44716
11965,138782.4,295.401,283.67,1.469332
11977,138921.6,295.978,284.26,1.440964
11989,139060.8,296.56,284.849,1.377479
12001,139200,297.139,285.439,1.351312
12013,139339.2,297.719,286.029,1.295461
12025,139478.4,298.297,286.617,1.344796
12037,139617.6,298.877,287.206,1.3498
12049,139756.8,299.315,287.794,1.417088
12061,139896,299.305,288.365,1.504263
12073,140035.2,299.267,288.904,1.385014
12085,140174.4,299.233,289.413,1.286909
12097,140313.6,299.213,289.894,1.501035
12109,140452.8,299.199,290.348,1.37919
12121,140592,299.191,290.777,1.444433
12133,140731.2,299.188,291.182,1.21426
12145,140870.4,299.185,291.564,1.640696
12157,141009.6,299.184,291.925,1.485488
12169,141148.8,299.182,292.267,2.017568
12181,141288,299.18,292.59,1.971317
12193,141427.2,299.178,292.895,1.898737
12205,141566.4,299.176,293.183,1.652722
12217,141705.6,299.174,293.454,1.860207
12229,141844.8,299.173,293.711,1.792824
12241,141984,299.173,293.953,1.877512
12253,142123.2,299.171,294.181,2.004918
12265,142262.4,299.17,294.3958,2.229279
12277,142401.6,299.169,294.599,2.574992
12289,142540.8,299.169,294.792,2.353212
12301,142680,299.17,294.975,2.216247
12313,142819.2,299.17,295.149,2.082106
12325,142958.4,299.168,295.314,2.034257
12337,143097.6,299.167,295.47,2.532781
12349,143236.8,299.165,295.618,2.505733
12361,143376,299.163,295.757,3.003222
12373,143515.2,299.161,295.889,2.748602
12385,143654.4,299.162,296.014,2.919719
12397,143793.6,299.162,296.132,3.37266
12409,143932.8,299.163,296.245,3.16148
12421,144072,299.163,296.35,3.123666
12433,144211.2,299.16,296.45,3.198647
12445,144350.4,299.16,296.545,3.000671
12457,144489.6,299.159,296.634,3.112637
12469,144628.8,299.16,296.719,2.613809
12481,144768,299.159,296.797,2.462036
12493,144907.2,299.159,296.873,2.740908
12505,145046.4,299.157,296.944,2.479716
12517,145185.6,299.156,297.011,2.50979
12529,145324.8,299.156,297.075,2.543647
12541,145464,299.157,297.134,2.743288
12553,145603.2,299.156,297.191,2.609317
12565,145742.4,299.157,297.245,2.47348
12577,145881.6,299.156,297.295,2.77514
12589,146020.8,299.157,297.342,3.298686
12601,146160,299.155,297.387,2.713403
12613,146299.2,299.156,297.43,3.132671
12625,146438.4,299.155,297.47,2.991383
12637,146577.6,299.1547,297.508,2.694189
12649,146716.8,299.153,297.544,2.810689
12661,146856,299.153,297.578,2.585651
12673,146995.2,299.154,297.61,2.442193
12685,147134.4,299.153,297.64,3.01595
12697,147273.6,299.153,297.669,3.084717
12709,147412.8,299.153,297.696,3.250317
12721,147552,299.152,297.721,3.077346
12733,147691.2,299.152,297.745,3.587177
12745,147830.4,299.153,297.767,3.368893
12757,147969.6,299.153,297.789,3.530884
12769,148108.8,299.153,297.809,3.438282
12781,148248,299.152,297.828,3.43942
12793,148387.2,299.153,297.846,3.777201
12805,148526.4,299.153,297.863,3.774217
12817,148665.6,299.1526,297.879,3.558209
12829,148804.8,299.153,297.894,3.282128
12841,148944,299.152,297.909,3.339414
12853,149083.2,299.151,297.922,2.994687
12865,149222.4,299.15,297.935,2.64259
12877,149361.6,299.151,297.948,2.212058
12889,149500.8,299.151,297.959,2.406168
12901,149640,299.1525,297.97,3.236911
12913,149779.2,299.153,297.979,3.137671
12925,149918.4,299.152,297.989,3.04049
12937,150057.6,299.153,297.999,2.638477
12949,150196.8,299.152,298.008,3.072532
12961,150336,299.152,298.015,2.961459
12973,150475.2,299.151,298.024,2.82361
12985,150614.4,299.15,298.031,2.992136
12997,150753.6,299.15,298.038,3.012024
13009,150892.8,299.149,298.044,3.5185
13021,151032,299.15,298.05,3.461325
13033,151171.2,299.15,298.056,3.029135
13045,151310.4,299.151,298.062,3.09983
13057,151449.6,299.152,298.066,3.103249
13069,151588.8,299.151,298.072,3.531791
13081,151728,299.151,298.076,3.375594
13093,151867.2,299.149,298.08,2.97929
13105,152006.4,299.149,298.085,3.261262
13117,152145.6,299.149,298.088,3.020973
13129,152284.8,299.15,298.091,3.323026
13141,152424,299.15,298.095,3.569124
13153,152563.2,299.151,298.098,3.604639
13165,152702.4,299.151,298.101,3.238554
13177,152841.6,299.151,298.104,3.49701
13189,152980.8,299.15,298.107,3.113594
13201,153120,299.149,298.109,3.157179
13213,153259.2,299.149,298.112,3.517236
13225,153398.4,299.148,298.114,3.24967
13237,153537.6,299.15,298.115,3.369972
13249,153676.8,299.149,298.117,3.127635
13261,153816,299.148,298.12,3.153886
13273,153955.2,299.148,298.121,2.89422
13285,154094.4,299.15,298.123,3.028937
13297,154233.6,299.149,298.124,3.485442
13309,154372.8,299.149,298.125,3.076812
13321,154512,299.15,298.127,2.775613
13333,154651.2,299.15,298.128,3.110439
13345,154790.4,299.151,298.131,2.707297
13357,154929.6,299.15,298.132,2.429272
13369,155068.8,299.149,298.133,2.615991
13381,155208,299.149,298.134,3.032679
13393,155347.2,299.15,298.134,3.505316
13405,155486.4,299.149,298.135,3.133415
13417,155625.6,299.15,298.136,3.046918
13429,155764.8,299.15,298.137,2.851956
13441,155904,299.15,298.138,3.110926
13453,156043.2,299.151,298.138,3.295757
13465,156182.4,299.15,298.139,2.693376
13477,156321.6,299.15,298.14,2.436805
13489,156460.8,299.15,298.141,2.580275
13501,156600,299.151,298.141,2.69114
13513,156739.2,299.149,298.142,2.710185
13525,156878.4,299.149,298.143,2.910977
13537,157017.6,299.15,298.143,3.235675
13549,157156.8,299.151,298.143,3.732851
13561,157296,299.152,298.144,3.822433
13573,157435.2,299.151,298.144,3.705733
13585,157574.4,299.151,298.145,3.03316
13597,157713.6,299.15,298.145,2.737122
13609,157852.8,299.151,298.146,2.34446
13621,157992,299.151,298.146,2.479865
13633,158131.2,299.151,298.147,2.492561
13645,158270.4,299.151,298.147,2.76097
13657,158409.6,299.149,298.148,2.673787
13669,158548.8,299.149,298.147,2.893631
13681,158688,299.149,298.148,2.8279
13693,158827.2,299.151,298.148,3.26861
13705,158966.4,299.152,298.149,3.012384
13717,159105.6,299.152,298.149,3.08429
13729,159244.8,299.152,298.149,2.973597
13741,159384,299.151,298.15,3.298809
13753,159523.2,299.151,298.15,3.625224
13765,159662.4,299.15,298.15,3.395601
13777,159801.6,299.15,298.15,2.957293
13789,159940.8,299.15,298.15,3.131138
13801,160080,299.15,298.15,3.270834
13813,160219.2,299.148,298.151,3.212826
13825,160358.4,299.147,298.15,2.819654
13837,160497.6,299.148,298.15,2.394733
13849,160636.8,299.149,298.151,2.947335
13861,160776,299.15,298.151,3.220205
13873,160915.2,299.151,298.151,3.280271
13885,161054.4,299.151,298.152,3.5056
13897,161193.6,299.15,298.152,3.650615
13909,161332.8,299.151,298.151,3.316823
13921,161472,299.151,298.152,3.058884
13933,161611.2,299.152,298.152,3.089946
13945,161750.4,299.151,298.151,3.311847
13957,161889.6,299.15,298.151,2.854148
13969,162028.8,299.151,298.152,3.163569
13981,162168,299.151,298.152,3.967246
13993,162307.2,299.15,298.152,3.640489
14005,162446.4,299.151,298.152,3.316649
14017,162585.6,299.151,298.153,3.216253
14029,162724.8,299.149,298.152,2.888468
14041,162864,299.148,298.153,2.767133
14053,163003.2,299.149,298.153,3.249373
14065,163142.4,299.15,298.152,3.228611
14077,163281.6,299.151,298.152,2.979595
14089,163420.8,299.15,298.153,3.003963
14101,163560,299.151,298.153,3.179868
14113,163699.2,299.151,298.153,2.879541
14125,163838.4,299.152,298.153,2.58848
14137,163977.6,299.151,298.153,2.861692
14149,164116.8,299.147,298.153,3.378084
14161,164256,299.147,298.154,3.252803
14173,164395.2,299.147,298.153,3.149493
14185,164534.4,299.148,298.153,3.134906
14197,164673.6,299.15,298.153,3.673952
14209,164812.8,299.147,298.152,3.558456
14221,164952,299.147,298.152,3.398509
14233,165091.2,299.148,298.152,2.981999
14245,165230.4,299.148,298.151,3.181075
14257,165369.6,299.146,298.151,3.302066
14269,165508.8,299.147,298.15,3.602912
14281,165648,299.147,298.15,3.268604
14293,165787.2,299.148,298.15,3.037266
14305,165926.4,299.15,298.1493,2.965703
14317,166065.6,299.149,298.148,3.112438
14329,166204.8,299.152,298.148,2.694381
14341,166344,299.151,298.149,2.913019
14353,166483.2,299.15,298.148,2.78139
14365,166622.4,299.151,298.148,2.948888
14377,166761.6,299.15,298.147,3.883173
14389,166900.8,299.151,298.148,3.940148
14401,167040,299.153,298.147,3.670539
14413,167179.2,299.154,298.148,3.508187
14425,167318.4,299.153,298.149,4.186242
14437,167457.6,299.153,298.148,4.072461
14449,167596.8,299.153,298.149,4.51214
14461,167736,299.155,298.149,4.271707
14473,167875.2,299.154,298.149,3.934136
14485,168014.4,299.153,298.15,3.568417
14497,168153.6,299.151,298.15,3.174729
14509,168292.8,299.151,298.151,2.962438
14521,168432,299.152,298.152,2.817248
14533,168571.2,299.152,298.152,3.167515
14545,168710.4,299.153,298.153,3.378086
14557,168849.6,299.154,298.153,3.344276
14569,168988.8,299.153,298.153,2.958655
14581,169128,299.153,298.154,3.103668
14593,169267.2,299.153,298.154,3.515716
14605,169406.4,299.154,298.156,3.134897
14617,169545.6,299.154,298.157,2.872322
14629,169684.8,299.152,298.157,2.750819
14641,169824,299.152,298.157,2.81586
14653,169963.2,299.153,298.159,2.601852
14665,170102.4,299.151,298.16,2.860988
14677,170241.6,299.151,298.161,2.886726
14689,170380.8,299.151,298.161,2.576962
14701,170520,299.15,298.161,2.803321
14713,170659.2,299.15,298.162,2.605792
14725,170798.4,299.151,298.163,3.117028
14737,170937.6,299.152,298.163,4.002555
14749,171076.8,299.152,298.163,4.08905
14761,171216,299.152,298.164,4.012677
14773,171355.2,299.151,298.165,3.826129
14785,171494.4,299.149,298.165,3.293611
14797,171633.6,299.149,298.165,3.870921
14809,171772.8,299.151,298.165,3.699305
14821,171912,299.149,298.166,4.003747
14833,172051.2,299.149,298.167,3.987611
14845,172190.4,299.149,298.167,3.946421
14857,172329.6,299.149,298.166,3.785966
14869,172468.8,299.15,298.167,3.521165
14881,172608,299.151,298.167,3.28451
14893,172747.2,299.152,298.167,2.910564
14897,172793.6,299.152,298.167,2.850842