File: i_data/0.25Kmin/H2O-NH3_2wt%.csv
NH3-H2O 2wt%  Specific Heat - Large HF,,,,
Creation Date : 6/23/2022 3:57:25 PM,,,,
User : admin,,,,
,,,,
HeatFlow :,,,,
 Initial Mass : 4874 mg,,,,
 Molar Mass : 17 g/mol,,,,
,,,,
Index,Time(s),Furnace Temperature(K),Sample Temperature(K),HeatFlow(mW)
1,0,297.956,298.01,31.4431
13,139.2,297.928,298.007,20.0471
25,278.4,297.881,298.004,12.8049
37,417.6,297.808,297.997,8.24963
49,556.8,297.704,297.985,5.460511
61,696,297.566,297.967,3.86223
73,835.2,297.393,297.942,3.092641
85,974.4,297.182,297.906,2.943236
97,1113.6,296.933,297.861,3.264723
109,1252.8,296.645,297.803,3.98045
121,1392,296.319,297.73,5.032835
133,1531.2,295.953,297.642,6.382679
145,1670.4,295.548,297.538,8.00969
157,1809.6,295.101,297.414,9.894147
169,1948.8,294.606,297.272,12.0187
181,2088,294.055,297.107,14.3761
193,2227.2,293.442,296.92,16.9804
205,2366.4,292.762,296.7062,19.8474
217,2505.6,292.014,296.464,23.007
229,2644.8,291.2,296.191,26.4534
241,2784,290.323,295.886,30.2201
253,2923.2,289.394,295.547,34.2965
265,3062.4,288.427,295.173,38.6549
277,3201.6,287.428,294.764,43.2619
289,3340.8,286.414,294.322,48.08258
301,3480,285.392,293.848,53.0174
313,3619.2,284.367,293.346,57.9525
325,3758.4,283.343,292.817,62.8027
337,3897.6,282.319,292.262,67.4767
349,4036.8,281.298,291.682,71.9722
361,4176,280.281,291.075,76.37441
373,4315.2,279.268,290.442,80.6638
385,4454.4,278.262,289.789,84.7924
397,4593.6,277.264,289.116,88.7365
409,4732.8,276.276,288.425,92.446
421,4872,275.299,287.719,95.8954
433,5011.2,274.33,286.999,99.0988
445,5150.4,273.37,286.264,102.025
457,5289.6,272.42,285.519,104.71
469,5428.8,271.478,284.763,107.166
481,5568,270.542,283.998,109.378
493,5707.2,269.614,283.224,111.38
505,5846.4,268.695,282.443,113.213
517,5985.6,267.785,281.656,114.857
529,6124.8,266.883,280.864,116.325
541,6264,265.993,280.066,117.652
553,6403.2,265.111,279.265,118.868
565,6542.4,264.235,278.461,119.88
577,6681.6,263.369,277.654,120.798
589,6820.8,262.511,276.845,121.621
601,6960,261.659,276.035,122.277
613,7099.2,260.813,275.224,123.001
625,7238.4,259.976,274.413,123.563
637,7377.6,259.148,273.601,123.906
649,7516.8,258.326,272.791,124.184
661,7656,257.512,271.981,124.522
673,7795.2,256.7076,271.173,124.618
685,7934.4,255.91,270.365,124.679
697,8073.6,255.117,269.561,124.813
709,8212.8,254.332,268.758,124.879
721,8352,253.552,267.958,124.817
733,8491.2,252.779,267.16,124.737
745,8630.4,252.01,266.365,124.566
757,8769.6,251.246,265.573,124.207
769,8908.8,250.487,264.784,123.907
781,9048,249.732,263.997,123.624
793,9187.2,248.982,263.214,123.441
805,9326.4,248.235,262.433,123.201
817,9465.6,247.496,261.657,122.906
829,9604.8,246.761,260.882,122.589
841,9744,246.034,260.112,122.247
853,9883.2,245.314,259.347,1030.89
865,10022.4,244.601,258.62,1521.06
877,10161.6,243.894,257.895,1565.78
889,10300.8,243.194,257.171,1518.56
901,10440,242.499,256.447,1369.57
913,10579.2,241.809,255.719,1111.78
925,10718.4,241.122,254.988,824.185
937,10857.6,240.44,254.253,590.302
949,10996.8,239.76,253.517,422.521
961,11136,239.083,252.784,308.631
973,11275.2,238.408,252.053,232.729
985,11414.4,237.736,251.324,182.198
997,11553.6,237.067,250.599,148.888
1009,11692.8,236.402,249.878,126.526
1021,11832,235.739,249.16,111.618
1033,11971.2,235.079,248.445,101.246
1045,12110.4,234.424,247.735,93.7494
1057,12249.6,233.772,247.029,88.1508
1069,12388.8,233.123,246.326,84.0219
1081,12528,232.477,245.628,80.523
1093,12667.2,231.835,244.9329,77.9932
1105,12806.4,231.198,244.242,75.8097
1117,12945.6,230.563,243.555,73.7647
1129,13084.8,229.932,242.872,71.6514
1141,13224,229.304,242.191,69.992
1153,13363.2,228.681,241.516,68.7886
1165,13502.4,228.059,240.843,67.6952
1177,13641.6,227.438,240.175,66.244
1189,13780.8,226.82,239.509,64.788
1201,13920,226.207,238.847,63.7954
1213,14059.2,225.596,238.188,62.56659
1225,14198.4,224.988,237.533,61.6044
1237,14337.6,224.385,236.882,60.8115
1249,14476.8,223.785,236.235,59.6106
1261,14616,223.188,235.59,58.62392
1273,14755.2,222.594,234.947,57.6845
1285,14894.4,222.004,234.309,56.923
1297,15033.6,221.416,233.675,56.2909
1309,15172.8,220.833,233.043,55.495
1321,15312,220.251,232.415,54.8783
1333,15451.2,219.672,231.79,53.8689
1345,15590.4,219.095,231.169,53.195
1357,15729.6,218.524,230.55,53.0121
1369,15868.8,217.954,229.935,52.4779
1381,16008,217.386,229.323,51.5796
1393,16147.2,216.822,228.714,50.6623
1405,16286.4,216.262,228.108,50.0467
1417,16425.6,215.703,227.505,49.8315
1429,16564.8,215.149,226.905,49.3644
1441,16704,214.597,226.309,48.7507
1453,16843.2,214.049,225.714,47.8887
1465,16982.4,213.501,225.124,47.3802
1477,17121.6,212.956,224.537,46.91398
1489,17260.8,212.414,223.952,46.0477
1501,17400,211.875,223.37,45.3924
1513,17539.2,211.339,222.792,45.4613
1525,17678.4,210.803,222.215,45.3279
1537,17817.6,210.269,221.642,44.6455
1549,17956.8,209.739,221.072,44.2745
1561,18096,209.212,220.504,43.8932
1573,18235.2,208.687,219.939,43.3002
1585,18374.4,208.165,219.376,42.6951
1597,18513.6,207.646,218.817,42.365
1609,18652.8,207.13,218.26,42.0564
1621,18792,206.617,217.706,41.3929
1633,18931.2,206.109,217.154,40.9389
1645,19070.4,205.606,216.606,40.70992
1657,19209.6,205.108,216.061,39.9575
1669,19348.8,204.612,215.519,39.8196
1681,19488,204.118,214.98,39.2947
1693,19627.2,203.626,214.444,39.0804
1705,19766.4,203.136,213.91,38.8341
1717,19905.6,202.649,213.38,38.4569
1729,20044.8,202.163,212.851,38.5264
1741,20184,201.68,212.325,37.9426
1753,20323.2,201.2,211.802,37.4248
1765,20462.4,200.725,211.282,37.2484
1777,20601.6,200.252,210.765,37.0889
1789,20740.8,199.782,210.25,36.8439
1801,20880,199.313,209.738,36.9497
1813,21019.2,198.846,209.229,36.0295
1825,21158.4,198.379,208.722,35.256
1837,21297.6,197.913,208.219,35.1152
1849,21436.8,197.447,207.717,34.6478
1861,21576,196.984,207.218,34.7322
1873,21715.2,196.526,206.721,34.3863
1885,21854.4,196.07,206.226,33.6131
1897,21993.6,195.616,205.734,33.19307
1909,22132.8,195.165,205.244,32.8965
1921,22272,194.719,204.757,32.69674
1933,22411.2,194.275,204.273,32.3702
1945,22550.4,193.834,203.7909,32.1883
1957,22689.6,193.3935,203.31,32.0571
1969,22828.8,192.955,202.833,32.3553
1981,22968,192.521,202.358,32.0877
1993,23107.2,192.089,201.886,31.6092
2005,23246.4,191.658,201.416,31.061
2017,23385.6,191.228,200.949,30.4882
2029,23524.8,190.798,200.482,30.5526
2041,23664,190.373,200.019,30.2789
2053,23803.2,189.951,199.559,30.3455
2065,23942.4,189.531,199.101,29.8568
2077,24081.6,189.114,198.645,29.2775
2089,24220.8,188.699,198.191,29.0817
2101,24360,188.285,197.739,28.8743
2113,24499.2,187.873,197.29,28.7224
2125,24638.4,187.46,196.843,28.6215
2137,24777.6,187.051,196.397,28.0669
2149,24916.8,186.644,195.955,28.0519
2161,25056,186.238,195.5138,27.8388
2173,25195.2,185.834,195.076,27.4048
2185,25334.4,185.43,194.639,27.109
2197,25473.6,185.029,194.204,26.7146
2209,25612.8,184.629,193.771,26.2126
2221,25752,184.23,193.341,26.6418
2233,25891.2,183.831,192.912,26.4758
2245,26030.4,183.433,192.485,26.5051
2257,26169.6,183.038,192.06,26.3024
2269,26308.8,182.6453,191.637,25.8645
2281,26448,182.251,191.215,26.16413
2293,26587.2,181.8571,190.794,25.9445
2305,26726.4,181.466,190.377,25.5555
2317,26865.6,181.08,189.96,25.2525
2329,27004.8,180.701,189.545,24.83298
2341,27144,180.327,189.132,25.0538
2353,27283.2,179.955,188.722,24.93345
2365,27422.4,179.587,188.314,24.5455
2377,27561.6,179.222,187.907,24.3544
2389,27700.8,178.859,187.504,23.7554
2401,27840,178.497,187.103,23.6451
2413,27979.2,178.138,186.704,23.6774
2425,28118.4,177.781,186.307,23.8269
2437,28257.6,177.427,185.912,23.4335
2449,28396.8,177.076,185.52,23.4763
2461,28536,176.726,185.13,23.1488
2473,28675.2,176.378,184.741,22.5101
2485,28814.4,176.032,184.355,22.3049
2497,28953.6,175.686,183.972,22.2489
2509,29092.8,175.338,183.591,22.2368
2521,29232,174.988,183.211,21.711
2533,29371.2,174.639,182.832,21.7189
2545,29510.4,174.293,182.455,21.8159
2557,29649.6,173.949,182.081,21.5083
2569,29788.8,173.607,181.707,21.4062
2581,29928,173.266,181.336,21.3837
2593,30067.2,172.927,180.967,21.1689
2605,30206.4,172.59,180.599,21.1649
2617,30345.6,172.254,180.232,20.6543
2629,30484.8,171.915,179.868,20.6739
2641,30624,171.579,179.505,20.7056
2653,30763.2,171.245,179.142,20.79808
2665,30902.4,170.912,178.783,20.5948
2677,31041.6,170.58,178.424,20.54
2689,31180.8,170.249,178.067,20.40009
2701,31320,169.92,177.712,20.1918
2713,31459.2,169.588,177.357,19.9253
2725,31598.4,169.251,177.004,20.0137
2737,31737.6,168.907,176.652,20.203
2749,31876.8,168.56,176.3,20.1209
2761,32016,168.211,175.948,19.9506
2773,32155.2,167.86,175.597,19.652
2785,32294.4,167.508,175.246,19.4491
2797,32433.6,167.156,174.895,19.4946
2809,32572.8,166.803,174.544,19.3251
2821,32712,166.453,174.194,19.3691
2833,32851.2,166.105,173.844,19.2369
2845,32990.4,165.764,173.494,19.0655
2857,33129.6,165.43,173.146,18.7148
2869,33268.8,165.105,172.798,18.82005
2881,33408,164.788,172.452,18.9002
2893,33547.2,164.477,172.107,19.03988
2905,33686.4,164.17,171.765,19.1309
2917,33825.6,163.8627,171.424,18.98678
2929,33964.8,163.557,171.085,18.4934
2941,34104,163.254,170.748,18.0728
2953,34243.2,162.955,170.412,17.9778
2965,34382.4,162.659,170.078,17.7921
2977,34521.6,162.364,169.747,17.7858
2989,34660.8,162.071,169.418,17.65652
3001,34800,161.779,169.089,17.7638
3013,34939.2,161.493,168.764,17.4578
3025,35078.4,161.208,168.44,17.2991
3037,35217.6,160.928,168.118,17.4324
3049,35356.8,160.651,167.799,17.558
3061,35496,160.372,167.481,17.2959
3073,35635.2,160.092,167.165,17.008
3085,35774.4,159.81,166.851,17.14373
3097,35913.6,159.532,166.538,16.9926
3109,36052.8,159.255,166.228,16.8557
3121,36192,158.981,165.918,16.684
3133,36331.2,158.71,165.612,16.5818
3145,36470.4,158.44,165.307,16.5352
3157,36609.6,158.172,165.002,16.3475
3169,36748.8,157.905,164.701,16.0392
3181,36888,157.641,164.401,16.1519
3193,37027.2,157.377,164.103,16.0134
3205,37166.4,157.112,163.806,15.4996
3217,37305.6,156.847,163.511,15.2317
3229,37444.8,156.584,163.217,14.9691
3241,37584,156.321,162.925,14.9221
3253,37723.2,156.056,162.634,14.951
3265,37862.4,155.787,162.346,15.2291
3277,38001.6,155.52,162.057,15.1347
3289,38140.8,155.255,161.77,14.9033
3301,38280,154.992,161.484,14.6608
3313,38419.2,154.733,161.199,14.5054
3325,38558.4,154.48,160.916,14.6798
3337,38697.6,154.229,160.634,14.3978
3349,38836.8,153.979,160.353,14.0181
3361,38976,153.729,160.074,14.1786
3373,39115.2,153.481,159.796,14.119
3385,39254.4,153.236,159.52,14.0072
3397,39393.6,152.994,159.246,13.8102
3409,39532.8,152.753,158.973,13.7344
3421,39672,152.513,158.702,13.5539
3433,39811.2,152.275,158.432,13.3378
3445,39950.4,152.038,158.164,13.4617
3457,40089.6,151.803,157.897,13.0265
3469,40228.8,151.567,157.632,12.8998
3481,40368,151.334,157.369,13.1321
3493,40507.2,151.1,157.106,13.3504
3505,40646.4,150.865,156.845,13.2468
3517,40785.6,150.629,156.585,13.13034
3529,40924.8,150.395,156.327,13.5506
3541,41064,150.161,156.07,13.2948
3553,41203.2,149.925,155.813,12.9496
3565,41342.4,149.686,155.558,12.5938
3577,41481.6,149.447,155.303,12.4376
3589,41620.8,149.211,155.05,12.2999
3601,41760,148.978,154.797,12.4494
3613,41899.2,148.747,154.545,12.4682
3625,42038.4,148.518,154.294,12.5337
3637,42177.6,148.292,154.044,12.437
3649,42316.8,148.069,153.796,12.2157
3661,42456,147.849,153.548,12.1113
3673,42595.2,147.63,153.302,11.8891
3685,42734.4,147.414,153.058,11.7795
3697,42873.6,147.198,152.815,11.7119
3709,43012.8,146.982,152.573,11.7797
3721,43152,146.768,152.333,11.8422
3733,43291.2,146.555,152.093,11.8306
3745,43430.4,146.344,151.855,11.8625
3757,43569.6,146.134,151.618,11.98106
3769,43708.8,145.925,151.382,11.5705
3781,43848,145.719,151.148,11.4509
3793,43987.2,145.513,150.915,11.0847
3805,44126.4,145.308,150.684,10.8322
3817,44265.6,145.104,150.453,11.0673
3829,44404.8,144.9,150.224,11.102
3841,44544,144.696,149.996,10.9372
3853,44683.2,144.493,149.768,11.0587
3865,44822.4,144.29,149.543,10.9661
3877,44961.6,144.085,149.318,10.5367
3889,45100.8,143.874,149.094,10.4283
3901,45240,143.658,148.87,10.5498
3913,45379.2,143.442,148.648,10.5971
3925,45518.4,143.227,148.425,10.5184
3937,45657.6,143.013,148.202,10.5551
3949,45796.8,142.803,147.98,10.49574
3961,45936,142.598,147.759,10.5334
3973,46075.2,142.398,147.538,10.548
3985,46214.4,142.2,147.319,10.5447
3997,46353.6,142.003,147.101,10.47851
4009,46492.8,141.808,146.883,10.2492
4021,46632,141.617,146.667,10.31037
4033,46771.2,141.426,146.453,10.4384
4045,46910.4,141.23,146.238,10.2925
4057,47049.6,141.025,146.025,10.02211
4069,47188.8,140.816,145.811,10.1055
4081,47328,140.603,145.599,10.0422
4093,47467.2,140.386,145.386,9.889837
4105,47606.4,140.167,145.173,9.738907
4117,47745.6,139.947,144.959,9.850894
4129,47884.8,139.724,144.746,9.814894
4141,48024,139.5,144.531,9.695301
4153,48163.2,139.277,144.316,9.866597
4165,48302.4,139.057,144.102,9.842423
4177,48441.6,138.844,143.888,9.554411
4189,48580.8,138.638,143.673,9.730661
4201,48720,138.44,143.46,9.741309
4213,48859.2,138.249,143.247,9.852072
4225,48998.4,138.067,143.036,9.734107
4237,49137.6,137.89,142.825,9.55326
4249,49276.8,137.717,142.617,9.603824
4261,49416,137.5474,142.409,9.285343
4273,49555.2,137.38,142.204,9.194395
4285,49694.4,137.217,142.001,9.174241
4297,49833.6,137.053,141.798,9.140706
4309,49972.8,136.887,141.598,9.292478
4321,50112,136.722,141.4,9.191383
4333,50251.2,136.559,141.202,9.158622
4345,50390.4,136.395,141.007,9.052179
4357,50529.6,136.228,140.813,8.936748
4369,50668.8,136.055,140.619,8.787861
4381,50808,135.881,140.427,8.468539
4393,50947.2,135.708,140.236,8.403662
4405,51086.4,135.539,140.045,8.304583
4417,51225.6,135.374,139.856,8.438358
4429,51364.8,135.214,139.667,8.37319
4441,51504,135.053,139.48,8.326194
4453,51643.2,134.889,139.294,8.186289
4465,51782.4,134.721,139.109,8.21293
4477,51921.6,134.55,138.925,8.195173
4489,52060.8,134.38,138.741,8.191932
4501,52200,134.21,138.558,8.045791
4513,52339.2,134.044,138.375,8.012666
4525,52478.4,133.883,138.193,7.915558
4537,52617.6,133.724,138.012,7.857401
4549,52756.8,133.566,137.833,7.852348
4561,52896,133.41,137.654,7.816179
4573,53035.2,133.259,137.476,7.715233
4585,53174.4,133.11,137.301,7.765964
4597,53313.6,132.961,137.126,7.609362
4609,53452.8,132.8133,136.952,7.412024
4621,53592,132.667,136.779,7.331178
4633,53731.2,132.518,136.608,7.225404
4645,53870.4,132.362,136.437,7.179175
4657,54009.6,132.197,136.267,7.146258
4669,54148.8,132.028,136.096,6.982527
4681,54288,131.8534,135.926,7.131779
4693,54427.2,131.672,135.755,7.046479
4705,54566.4,131.484,135.583,7.099881
4717,54705.6,131.29,135.411,7.089354
4729,54844.8,131.097,135.238,7.149063
4741,54984,130.906,135.063,7.289558
4753,55123.2,130.714,134.889,7.372181
4765,55262.4,130.519,134.713,7.339726
4777,55401.6,130.324,134.538,7.226889
4789,55540.8,130.132,134.361,7.242194
4801,55680,129.946,134.184,7.243726
4813,55819.2,129.766,134.006,7.339938
4825,55958.4,129.593,133.829,7.328763
4837,56097.6,129.424,133.652,7.416672
4849,56236.8,129.26,133.476,7.474821
4861,56376,129.104,133.299,7.376961
4873,56515.2,128.957,133.125,7.368072
4885,56654.4,128.82,132.951,7.361878
4897,56793.6,128.694,132.779,7.285465
4909,56932.8,128.58,132.61,7.195639
4921,57072,128.47,132.443,7.056844
4933,57211.2,128.354,132.279,7.019254
4945,57350.4,128.227,132.115,6.809282
4957,57489.6,128.092,131.954,6.846814
4969,57628.8,127.951,131.794,6.773119
4981,57768,127.808,131.634,6.774706
4993,57907.2,127.665,131.475,6.619069
5005,58046.4,127.523,131.317,6.426834
5017,58185.6,127.383,131.159,6.509346
5029,58324.8,127.243,131.0026,6.478023
5041,58464,127.103,130.847,6.400744
5053,58603.2,126.964,130.692,6.248017
5065,58742.4,126.827,130.537,6.182052
5077,58881.6,126.692,130.384,6.237905
5089,59020.8,126.561,130.231,6.149417
5101,59160,126.436,130.079,6.033193
5113,59299.2,126.318,129.928,5.949486
5125,59438.4,126.205,129.779,6.04562
5137,59577.6,126.097,129.633,5.876883
5149,59716.8,125.988,129.487,5.756271
5161,59856,125.871,129.343,5.820018
5173,59995.2,125.745,129.199,5.848495
5185,60134.4,125.61,129.056,5.731839
5197,60273.6,125.472,128.914,5.702862
5209,60412.8,125.329,128.772,5.645509
5221,60552,125.18,128.629,5.59939
5233,60691.2,125.025,128.487,5.62145
5245,60830.4,124.868,128.343,5.642207
5257,60969.6,124.713,128.199,5.563733
5269,61108.8,124.56,128.055,5.489853
5281,61248,124.405,127.91,5.505069
5293,61387.2,124.25,127.765,5.640883
5305,61526.4,124.095,127.62,5.618369
5317,61665.6,123.943,127.473,5.625506
5329,61804.8,123.794,127.328,5.621261
5341,61944,123.644,127.18,5.635105
5353,62083.2,123.492,127.035,5.675297
5365,62222.4,123.34,126.888,5.724513
5377,62361.6,123.191,126.741,5.678114
5389,62500.8,123.048,126.595,5.620762
5401,62640,122.906,126.447,5.718577
5413,62779.2,122.765,126.301,5.696585
5425,62918.4,122.627,126.155,5.667296
5437,63057.6,122.495,126.009,5.714504
5449,63196.8,122.373,125.865,5.690443
5461,63336,122.264,125.722,5.611445
5473,63475.2,122.168,125.58,5.484086
5485,63614.4,122.079,125.44,5.375765
5497,63753.6,121.985,125.303,5.279266
5509,63892.8,121.882,125.167,5.294059
5521,64032,121.767,125.032,5.254891
5533,64171.2,121.646,124.898,5.211396
5545,64310.4,121.521,124.764,5.123911
5557,64449.6,121.398,124.631,5.075165
5569,64588.8,121.279,124.498,5.057324
5581,64728,121.168,124.366,5.011502
5593,64867.2,121.063,124.236,5.005669
5605,65006.4,120.9616,124.106,4.908506
5617,65145.6,120.855,123.978,4.894603
5629,65284.8,120.741,123.849,4.84615
5641,65424,120.621,123.722,4.795012
5653,65563.2,120.498,123.595,4.710918
5665,65702.4,120.377,123.467,4.687994
5677,65841.6,120.259,123.34,4.721835
5689,65980.8,120.148,123.215,4.659901
5701,66120,120.044,123.089,4.712216
5713,66259.2,119.942,122.964,4.648167
5725,66398.4,119.838,122.841,4.639518
5737,66537.6,119.728,122.719,4.574677
5749,66676.8,119.616,122.597,4.507427
5761,66816,119.505,122.475,4.58287
5773,66955.2,119.397,122.353,4.647578
5785,67094.4,119.295,122.233,4.557298
5797,67233.6,119.199,122.114,4.537003
5809,67372.8,119.112,121.996,4.483696
5821,67512,119.032,121.879,4.466972
5833,67651.2,118.961,121.764,4.368681
5845,67790.4,118.896,121.651,4.223411
5857,67929.6,118.833,121.54,4.092242
5869,68068.8,118.773,121.431,4.013738
5881,68208,118.718,121.324,3.946279
5893,68347.2,118.67,121.22,3.845572
5905,68486.4,118.627,121.118,3.777791
5917,68625.6,118.586,121.019,3.669805
5929,68764.8,118.545,120.922,3.592485
5941,68904,118.504,120.827,3.496541
5953,69043.2,118.464,120.735,3.424975
5965,69182.4,118.422,120.646,3.373505
5977,69321.6,118.377,120.557,3.243018
5989,69460.8,118.328,120.471,3.201432
6001,69600,118.278,120.386,3.157469
6013,69739.2,118.23,120.303,3.056638
6025,69878.4,118.184,120.221,2.95772
6037,70017.6,118.141,120.141,2.929105
6049,70156.8,118.098,120.062,2.932068
6061,70296,118.055,119.986,2.845879
6073,70435.2,118.012,119.91,2.802582
6085,70574.4,117.97,119.836,2.761805
6097,70713.6,117.926,119.764,2.700339
6109,70852.8,117.878,119.691,2.641427
6121,70992,117.829,119.621,2.564975
6133,71131.2,117.781,119.551,2.532969
6145,71270.4,117.732,119.482,2.508201
6157,71409.6,117.68,119.414,2.458632
6169,71548.8,117.623,119.346,2.434376
6181,71688,117.56,119.279,2.412418
6193,71827.2,117.496,119.213,2.380219
6205,71966.4,117.433,119.145,2.365517
6217,72105.6,117.374,119.078,2.345544
6229,72244.8,117.315,119.012,2.332257
6241,72384,117.253,118.946,2.317497
6253,72523.2,117.186,118.88,2.318212
6265,72662.4,117.117,118.814,2.325956
6277,72801.6,117.049,118.748,2.31527
6289,72940.8,116.987,118.682,2.300176
6301,73080,116.93,118.616,2.296793
6313,73219.2,116.881,118.551,2.284898
6325,73358.4,116.834,118.487,2.266531
6337,73497.6,116.783,118.422,2.256656
6349,73636.8,116.722,118.359,2.244988
6361,73776,116.65,118.296,2.231846
6373,73915.2,116.567,118.231,2.216079
6385,74054.4,116.48,118.166,2.238485
6397,74193.6,116.388,118.099,2.251525
6409,74332.8,116.297,118.031,2.279304
6421,74472,116.212,117.963,2.309456
6433,74611.2,116.135,117.895,2.332582
6445,74750.4,116.069,117.826,2.344262
6457,74889.6,116.01,117.757,2.375669
6469,75028.8,115.959,117.689,2.367036
6481,75168,115.911,117.622,2.353657
6493,75307.2,115.864,117.556,2.337589
6505,75446.4,115.811,117.49,2.304111
6517,75585.6,115.751,117.425,2.275593
6529,75724.8,115.684,117.359,2.253274
6541,75864,115.614,117.294,2.251314
6553,76003.2,115.547,117.228,2.248174
6565,76142.4,115.488,117.163,2.245614
6577,76281.6,115.437,117.098,2.227077
6589,76420.8,115.391,117.034,2.216208
6601,76560,115.3487,116.971,2.208566
6613,76699.2,115.309,116.908,2.176918
6625,76838.4,115.27,116.847,2.13663
6637,76977.6,115.227,116.786,2.094225
6649,77116.8,115.175,116.726,2.057709
6661,77256,115.112,116.666,2.044311
6673,77395.2,115.041,116.606,2.036242
6685,77534.4,114.965,116.546,2.021039
6697,77673.6,114.888,116.484,2.028724
6709,77812.8,114.816,116.422,2.037299
6721,77952,114.755,116.36,2.049464
6733,78091.2,114.706,116.298,2.063718
6745,78230.4,114.667,116.237,2.055941
6757,78369.6,114.634,116.177,2.043687
6769,78508.8,114.604,116.118,2.145175
6781,78648,114.575,116.06,2.051582
6793,78787.2,114.542,116.005,1.967119
6805,78926.4,114.501,115.949,1.90854
6817,79065.6,114.451,115.893,1.865717
6829,79204.8,114.393,115.839,1.854183
6841,79344,114.334,115.783,1.818772
6853,79483.2,114.278,115.727,1.816482
6865,79622.4,114.23,115.672,1.809404
6877,79761.6,114.191,115.618,1.80321
6889,79900.8,114.155,115.563,1.780864
6901,80040,114.122,115.51,1.764174
6913,80179.2,114.091,115.458,1.730704
6925,80318.4,114.062,115.406,1.690914
6937,80457.6,114.031,115.356,1.655275
6949,80596.8,113.998,115.306,1.616312
6961,80736,113.959,115.258,1.596781
6973,80875.2,113.918,115.209,1.554772
6985,81014.4,113.878,115.16,1.520517
6997,81153.6,113.841,115.113,1.495828
7009,81292.8,113.807,115.064,1.469031
7021,81432,113.774,115.017,1.464105
7033,81571.2,113.742,114.972,1.427648
7045,81710.4,113.713,114.926,1.39777
7057,81849.6,113.683,114.881,1.367572
7069,81988.8,113.654,114.837,1.347254
7081,82128,113.624,114.794,1.312801
7093,82267.2,113.594,114.75,1.274715
7105,82406.4,113.565,114.707,1.248333
7117,82545.6,113.536,114.666,1.228536
7129,82684.8,113.506,114.624,1.21626
7141,82824,113.476,114.583,1.191621
7153,82963.2,113.448,114.543,1.159741
7165,83102.4,113.421,114.503,1.142898
7177,83241.6,113.394,114.463,1.121224
7189,83380.8,113.367,114.424,1.108573
7201,83520,113.34,114.386,1.077824
7213,83659.2,113.315,114.348,1.063639
7225,83798.4,113.29,114.31,1.048538
7237,83937.6,113.265,114.274,1.015626
7249,84076.8,113.24,114.237,1.000802
7261,84216,113.215,114.202,0.964832
7273,84355.2,113.192,114.167,0.946355
7285,84494.4,113.17,114.132,0.92847
7297,84633.6,113.146,114.097,0.914499
7309,84772.8,113.122,114.064,0.892965
7321,84912,113.099,114.03,0.862051
7333,85051.2,113.077,113.997,0.846539
7345,85190.4,113.055,113.964,0.83464
7357,85329.6,113.034,113.932,0.798544
7369,85468.8,113.012,113.901,0.780273
7381,85608,112.989,113.87,0.768041
7393,85747.2,112.962,113.839,0.754897
7405,85886.4,112.932,113.808,0.744771
7417,86025.6,112.9,113.777,0.733126
7429,86164.8,112.87,113.746,0.729958
7441,86304,112.844,113.716,0.71679
7453,86443.2,112.821,113.685,0.710584
7465,86582.4,112.8,113.655,0.711036
7477,86721.6,112.78,113.625,0.690277
7489,86860.8,112.76,113.596,0.673749
7501,87000,112.739,113.568,0.662972
7513,87139.2,112.716,113.539,0.658557
7525,87278.4,112.691,113.511,0.638978
7537,87417.6,112.666,113.482,0.626975
7549,87556.8,112.642,113.453,0.611022
7561,87696,112.622,113.425,0.598095
7573,87835.2,112.602,113.398,0.607315
7585,87974.4,112.584,113.37,0.588613
7597,88113.6,112.566,113.344,0.569898
7609,88252.8,112.548,113.317,0.551178
7621,88392,112.531,113.291,0.549155
7633,88531.2,112.513,113.265,0.533761
7645,88670.4,112.495,113.24,0.513802
7657,88809.6,112.477,113.215,0.50417
7669,88948.8,112.458,113.191,0.491794
7681,89088,112.439,113.166,0.475464
7693,89227.2,112.419,113.142,0.461255
7705,89366.4,112.4,113.117,0.448563
7717,89505.6,112.382,113.093,0.450465
7729,89644.8,112.363,113.069,0.43168
7741,89784,112.344,113.047,0.416536
7753,89923.2,112.325,113.023,0.402912
7765,90062.4,112.308,113,0.406631
7777,90201.6,112.289,112.977,0.392085
7789,90340.8,112.27,112.954,0.379971
7801,90480,112.253,112.931,0.375465
7813,90619.2,112.235,112.909,0.375522
7825,90758.4,112.218,112.887,0.364007
7837,90897.6,112.201,112.865,0.344261
7849,91036.8,112.185,112.844,0.342181
7861,91176,112.169,112.823,0.346499
7873,91315.2,112.151,112.801,0.328874
7885,91454.4,112.135,112.78,0.308803
7897,91593.6,112.119,112.759,0.30519
7909,91732.8,112.103,112.738,0.305847
7921,91872,112.086,112.718,0.294912
7933,92011.2,112.069,112.698,0.282753
7945,92150.4,112.053,112.677,0.277608
7957,92289.6,112.036,112.657,0.278869
7969,92428.8,112.019,112.638,0.265786
7981,92568,112.001,112.617,0.253007
7993,92707.2,111.984,112.598,0.248769
8005,92846.4,111.966,112.578,0.254604
8017,92985.6,111.947,112.558,0.251281
8029,93124.8,111.929,112.539,0.230551
8041,93264,111.91,112.519,0.23089
8053,93403.2,111.892,112.5,0.245889
8065,93542.4,111.874,112.48,0.234314
8077,93681.6,111.855,112.461,0.21968
8089,93820.8,111.836,112.442,0.218488
8101,93960,111.817,112.422,0.237161
8113,94099.2,111.797,112.403,0.229858
8125,94238.4,111.779,112.384,0.218884
8137,94377.6,111.76,112.365,0.219832
8149,94516.8,111.741,112.346,0.231481
8161,94656,111.722,112.327,0.224479
8173,94795.2,111.703,112.307,0.223899
8185,94934.4,111.825,112.289,0.206797
8197,95073.6,112.443,112.282,0.066692
8209,95212.8,113.31,112.303,-0.35054
8221,95352,114.141,112.356,-1.02921
8233,95491.2,114.874,112.438,-1.896466
8245,95630.4,115.527,112.547,-2.859586
8257,95769.6,116.135,112.678,-3.846219
8269,95908.8,116.72,112.828,-4.780688
8281,96048,117.297,112.999,-5.643258
8293,96187.2,117.874,113.184,-6.457439
8305,96326.4,118.454,113.388,-7.242136
8317,96465.6,119.034,113.607,-7.960734
8329,96604.8,119.615,113.842,-8.631958
8341,96744,120.196,114.091,-9.294328
8353,96883.2,120.779,114.354,-9.948251
8365,97022.4,121.362,114.632,-10.5551
8377,97161.6,121.942,114.922,-11.1377
8389,97300.8,122.524,115.224,-11.6997
8401,97440,123.107,115.539,-12.2511
8413,97579.2,123.69,115.864,-12.7938
8425,97718.4,124.272,116.201,-13.30249
8437,97857.6,124.853,116.547,-13.8041
8449,97996.8,125.435,116.905,-14.2926
8461,98136,126.015,117.272,-14.7728
8473,98275.2,126.596,117.649,-15.2421
8485,98414.4,127.176,118.033,-15.6956
8497,98553.6,127.756,118.426,-16.1431
8509,98692.8,128.336,118.826,-16.59413
8521,98832,128.917,119.235,-17.0321
8533,98971.2,129.498,119.651,-17.4694
8545,99110.4,130.08,120.073,-17.9079
8557,99249.6,130.661,120.502,-18.35028
8569,99388.8,131.24,120.939,-18.8067
8581,99528,131.821,121.38,-19.2875
8593,99667.2,132.401,121.826,-19.742
8605,99806.4,132.982,122.28,-20.1938
8617,99945.6,133.565,122.738,-20.5997
8629,100084.8,134.146,123.202,-20.9348
8641,100224,134.727,123.672,-21.1417
8653,100363.2,135.307,124.145,-21.3035
8665,100502.4,135.888,124.623,-21.4325
8677,100641.6,136.466,125.106,-21.5801
8689,100780.8,137.046,125.591,-21.7697
8701,100920,137.625,126.081,-21.9728
8713,101059.2,138.205,126.575,-22.1758
8725,101198.4,138.784,127.072,-22.3779
8737,101337.6,139.365,127.573,-22.57
8749,101476.8,139.946,128.077,-22.7745
8761,101616,140.527,128.584,-22.97
8773,101755.2,141.109,129.094,-23.1692
8785,101894.4,141.689,129.607,-23.35028
8797,102033.6,142.269,130.122,-23.5524
8809,102172.8,142.849,130.641,-23.7428
8821,102312,143.429,131.163,-23.9176
8833,102451.2,144.008,131.686,-24.0859
8845,102590.4,144.588,132.212,-24.2654
8857,102729.6,145.168,132.74,-24.447
8869,102868.8,145.749,133.27,-24.61534
8881,103008,146.33,133.802,-24.7722
8893,103147.2,146.909,134.336,-24.9223
8905,103286.4,147.49,134.873,-25.091
8917,103425.6,148.071,135.411,-25.2436
8929,103564.8,148.652,135.952,-25.38917
8941,103704,149.232,136.493,-25.5303
8953,103843.2,149.812,137.036,-25.6816
8965,103982.4,150.392,137.581,-25.8263
8977,104121.6,150.971,138.127,-25.9744
8989,104260.8,151.552,138.675,-26.1151
9001,104400,152.131,139.225,-26.2443
9013,104539.2,152.711,139.775,-26.381
9025,104678.4,153.292,140.326,-26.5046
9037,104817.6,153.872,140.879,-26.6314
9049,104956.8,154.451,141.433,-26.7563
9061,105096,155.03,141.989,-26.871
9073,105235.2,155.609,142.545,-26.9946
9085,105374.4,156.19,143.102,-27.1347
9097,105513.6,156.7732,143.66,-27.2514
9109,105652.8,157.354,144.219,-27.3705
9121,105792,157.935,144.779,-27.4802
9133,105931.2,158.516,145.341,-27.60251
9145,106070.4,159.096,145.903,-27.7168
9157,106209.6,159.673,146.466,-27.818
9169,106348.8,160.249,147.03,-27.9149
9181,106488,160.825,147.594,-27.99797
9193,106627.2,161.405,148.159,-28.06725
9205,106766.4,161.986,148.724,-28.1287
9217,106905.6,162.568,149.29,-28.1667
9229,107044.8,163.154,149.856,-28.1825
9241,107184,163.737,150.424,-28.1607
9253,107323.2,164.319,150.993,-28.0955
9265,107462.4,164.9,151.562,-28.0015
9277,107601.6,165.478,152.133,-27.8318
9289,107740.8,166.055,152.703,-27.5891
9301,107880,166.629,153.273,-27.2511
9313,108019.2,167.206,153.843,-26.7938
9325,108158.4,167.785,154.415,-26.19217
9337,108297.6,168.365,154.986,-25.4124
9349,108436.8,168.948,155.557,-24.4606
9361,108576,169.531,156.129,-23.3521
9373,108715.2,170.114,156.702,-22.1183
9385,108854.4,170.696,157.275,-20.8022
9397,108993.6,171.278,157.849,-19.5127
9409,109132.8,171.859,158.423,-18.27114
9421,109272,172.437,158.998,-17.1092
9433,109411.2,173.013,159.573,-15.97924
9445,109550.4,173.59,160.149,-14.8955
9457,109689.6,174.17,160.723,-14.07605
9469,109828.8,174.751,161.299,-13.8042
9481,109968,175.332,161.875,-14.3242
9493,110107.2,175.915,162.451,-15.7713
9505,110246.4,176.498,163.027,-17.96775
9517,110385.6,177.079,163.604,-20.5124
9529,110524.8,177.659,164.182,-22.9748
9541,110664,178.234,164.759,-25.044
9553,110803.2,178.812,165.3357,-26.6154
9565,110942.4,179.391,165.912,-27.74597
9577,111081.6,179.972,166.491,-28.5209
9589,111220.8,180.553,167.068,-29.0753
9601,111360,181.134,167.646,-29.4713
9613,111499.2,181.715,168.225,-29.7844
9625,111638.4,182.295,168.802,-30.0506
9637,111777.6,182.874,169.381,-30.3181
9649,111916.8,183.455,169.961,-30.7051
9661,112056,184.037,170.54,-31.6323
9673,112195.2,184.62,171.119,-35.4968
9685,112334.4,185.202,171.699,-48.7015
9697,112473.6,185.78,172.279,-72.17617
9709,112612.8,186.357,172.859,-69.9627
9721,112752,186.934,173.44,-44.9173
9733,112891.2,187.513,174.021,-30.6351
9745,113030.4,188.094,174.603,-22.2932
9757,113169.6,188.675,175.185,-17.7865
9769,113308.8,189.257,175.768,-16.6605
9781,113448,189.836,176.351,-19.5996
9793,113587.2,190.417,176.934,-42.64084
9805,113726.4,190.998,177.517,-51.9875
9817,113865.6,191.579,178.099,-98.1531
9829,114004.8,192.16,178.681,-74.0061
9841,114144,192.739,179.266,-55.7807
9853,114283.2,193.317,179.85,-46.1912
9865,114422.4,193.894,180.435,-40.8974
9877,114561.6,194.473,181.02,-37.94566
9889,114700.8,195.053,181.604,-36.30808
9901,114840,195.635,182.19,-35.4143
9913,114979.2,196.216,182.776,-34.9571
9925,115118.4,196.796,183.362,-34.7437
9937,115257.6,197.377,183.948,-34.6519
9949,115396.8,197.957,184.534,-34.6328
9961,115536,198.538,185.121,-34.6597
9973,115675.2,199.12,185.708,-34.755
9985,115814.4,199.701,186.296,-34.8685
9997,115953.6,200.28,186.883,-34.9602
10009,116092.8,200.857,187.47,-35.05181
10021,116232,201.436,188.059,-35.1558
10033,116371.2,202.015,188.646,-35.2546
10045,116510.4,202.595,189.234,-35.3406
10057,116649.6,203.175,189.822,-35.436
10069,116788.8,203.756,190.41,-35.541
10081,116928,204.336,190.999,-35.6418
10093,117067.2,204.915,191.587,-35.7513
10105,117206.4,205.494,192.175,-35.8637
10117,117345.6,206.075,192.763,-35.97253
10129,117484.8,206.657,193.352,-36.0695
10141,117624,207.238,193.941,-36.14259
10153,117763.2,207.819,194.529,-36.2733
10165,117902.4,208.4,195.119,-36.3894
10177,118041.6,208.979,195.708,-36.4793
10189,118180.8,209.556,196.297,-36.614
10201,118320,210.135,196.886,-36.7002
10213,118459.2,210.716,197.476,-36.8267
10225,118598.4,211.296,198.066,-36.9569
10237,118737.6,211.879,198.655,-37.0783
10249,118876.8,212.46,199.245,-37.1909
10261,119016,213.04,199.835,-37.2339
10273,119155.2,213.62,200.425,-37.2959
10285,119294.4,214.2,201.015,-37.4464
10297,119433.6,214.778,201.605,-37.6165
10309,119572.8,215.355,202.196,-37.7327
10321,119712,215.933,202.787,-37.8173
10333,119851.2,216.513,203.376,-37.9309
10345,119990.4,217.095,203.966,-38.06462
10357,120129.6,217.677,204.557,-38.2095
10369,120268.8,218.261,205.147,-38.3554
10381,120408,218.841,205.738,-38.46617
10393,120547.2,219.422,206.328,-38.5827
10405,120686.4,220.001,206.92,-38.7159
10417,120825.6,220.578,207.511,-38.8518
10429,120964.8,221.156,208.102,-38.9715
10441,121104,221.736,208.693,-39.1193
10453,121243.2,222.315,209.284,-39.2601
10465,121382.4,222.895,209.874,-39.3695
10477,121521.6,223.475,210.466,-39.4078
10489,121660.8,224.056,211.056,-39.5141
10501,121800,224.637,211.647,-39.6614
10513,121939.2,225.218,212.238,-39.7713
10525,122078.4,225.8,212.829,-39.9513
10537,122217.6,226.381,213.42,-40.0672
10549,122356.8,226.961,214.012,-40.2619
10561,122496,227.541,214.603,-40.4009
10573,122635.2,228.119,215.195,-40.5546
10585,122774.4,228.697,215.786,-40.7271
10597,122913.6,229.276,216.378,-40.8832
10609,123052.8,229.855,216.969,-41.0421
10621,123192,230.436,217.56,-41.1819
10633,123331.2,231.018,218.151,-41.3071
10645,123470.4,231.6,218.743,-41.4581
10657,123609.6,232.18,219.334,-41.6356
10669,123748.8,232.757,219.926,-41.7963
10681,123888,233.338,220.517,-42.0177
10693,124027.2,233.917,221.109,-42.2423
10705,124166.4,234.496,221.701,-42.33428
10717,124305.6,235.078,222.291,-42.5188
10729,124444.8,235.657,222.884,-42.6472
10741,124584,236.238,223.475,-42.839
10753,124723.2,236.817,224.066,-43.0399
10765,124862.4,237.394,224.657,-43.2375
10777,125001.6,237.974,225.248,-43.4524
10789,125140.8,238.554,225.84,-43.6473
10801,125280,239.135,226.431,-43.7903
10813,125419.2,239.718,227.022,-43.9889
10825,125558.4,240.3,227.614,-44.1935
10837,125697.6,240.882,228.204,-44.4459
10849,125836.8,241.462,228.796,-44.6142
10861,125976,242.039,229.387,-44.9026
10873,126115.2,242.618,229.978,-45.1361
10885,126254.4,243.198,230.57,-45.3397
10897,126393.6,243.778,231.161,-45.5963
10909,126532.8,244.358,231.752,-45.7588
10921,126672,244.941,232.343,-46.0685
10933,126811.2,245.519,232.935,-46.3492
10945,126950.4,246.099,233.526,-46.6384
10957,127089.6,246.68,234.117,-46.9187
10969,127228.8,247.261,234.708,-47.1854
10981,127368,247.841,235.299,-47.4428
10993,127507.2,248.42,235.892,-47.7486
11005,127646.4,249.001,236.484,-48.0557
11017,127785.6,249.581,237.076,-48.453
11029,127924.8,250.161,237.667,-48.8477
11041,128064,250.74,238.26,-49.2374
11053,128203.2,251.32,238.851,-49.6493
11065,128342.4,251.899,239.443,-49.9677
11077,128481.6,252.477,240.034,-50.3012
11089,128620.8,253.056,240.626,-50.6989
11101,128760,253.637,241.217,-51.1687
11113,128899.2,254.216,241.809,-51.6434
11125,129038.4,254.795,242.4,-52.1243
11137,129177.6,255.375,242.991,-52.5833
11149,129316.8,255.955,243.582,-53.0555
11161,129456,256.536,244.174,-53.569
11173,129595.2,257.116,244.764,-54.0445
11185,129734.4,257.698,245.356,-54.6697
11197,129873.6,258.279,245.946,-55.3148
11209,130012.8,258.861,246.539,-55.9859
11221,130152,259.442,247.129,-56.6452
11233,130291.2,260.021,247.72,-57.3892
11245,130430.4,260.6,248.312,-58.1367
11257,130569.6,261.178,248.903,-58.9197
11269,130708.8,261.759,249.494,-59.74689
11281,130848,262.339,250.086,-60.692
11293,130987.2,262.917,250.676,-61.6298
11305,131126.4,263.496,251.267,-62.6658
11317,131265.6,264.076,251.858,-63.7577
11329,131404.8,264.658,252.449,-64.8689
11341,131544,265.238,253.039,-66.1081
11353,131683.2,265.816,253.63,-67.48992
11365,131822.4,266.395,254.22,-68.8926
11377,131961.6,266.973,254.81,-70.4357
11389,132100.8,267.553,255.4,-72.0897
11401,132240,268.133,255.99,-73.9067
11413,132379.2,268.713,256.578,-75.835
11425,132518.4,269.293,257.168,-77.857
11437,132657.6,269.875,257.758,-80.1595
11449,132796.8,270.457,258.347,-82.724
11461,132936,271.037,258.937,-85.447
11473,133075.2,271.615,259.525,-88.3945
11485,133214.4,272.192,260.115,-91.7108
11497,133353.6,272.771,260.703,-95.3091
11509,133492.8,273.352,261.292,-99.3457
11521,133632,273.934,261.88,-103.7203
11533,133771.2,274.517,262.469,-108.634
11545,133910.4,275.097,263.057,-114.086
11557,134049.6,275.676,263.645,-120.215
11569,134188.8,276.255,264.233,-127.024
11581,134328,276.835,264.822,-134.637
11593,134467.2,277.417,265.409,-143.164
11605,134606.4,277.998,265.997,-152.742
11617,134745.6,278.578,266.584,-163.546
11629,134884.8,279.157,267.172,-175.617
11641,135024,279.738,267.76,-188.876
11653,135163.2,280.318,268.347,-203.708
11665,135302.4,280.895,268.933,-221.057
11677,135441.6,281.47,269.519,-240.771
11689,135580.8,282.047,270.104,-262.969
11701,135720,282.628,270.689,-288.054
11713,135859.2,283.21,271.273,-316.189
11725,135998.4,283.793,271.855,-347.46
11737,136137.6,284.376,272.439,-382.182
11749,136276.8,284.953,273.021,-421.193
11761,136416,285.531,273.602,-465.021
11773,136555.2,286.112,274.183,-504.919
11785,136694.4,286.694,274.763,-543.498
11797,136833.6,287.276,275.343,-581.66
11809,136972.8,287.859,275.922,-616.919
11821,137112,288.441,276.502,-651.903
11833,137251.2,289.02,277.082,-679.472
11845,137390.4,289.6,277.662,-697.219
11857,137529.6,290.178,278.242,-704.135
11869,137668.8,290.756,278.822,-680.508
11881,137808,291.331,279.405,-579.695
11893,137947.2,291.906,279.99,-402.208
11905,138086.4,292.484,280.579,-292.5
11917,138225.6,293.067,281.171,-221.136
11929,138364.8,293.651,281.761,-174.743
11941,138504,294.235,282.353,-144.597
11953,138643.2,294.815,282.945,-125.061
11965,138782.4,295.39,283.538,-112.441
11977,138921.6,295.967,284.129,-104.314
11989,139060.8,296.547,284.72,-99.2672
12001,139200,297.131,285.31,-95.741
12013,139339.2,297.714,285.901,-93.343
12025,139478.4,298.296,286.491,-91.7475
12037,139617.6,298.879,287.083,-90.6748
12049,139756.8,299.314,287.673,-89.9753
12061,139896,299.303,288.243,-89.3449
12073,140035.2,299.257,288.784,-88.4257
12085,140174.4,299.216,289.294,-86.8477
12097,140313.6,299.193,289.774,-84.5318
12109,140452.8,299.183,290.228,-81.61156
12121,140592,299.181,290.655,-78.2844
12133,140731.2,299.182,291.06,-74.7486
12145,140870.4,299.181,291.442,-71.1542
12157,141009.6,299.172,291.804,-67.5821
12169,141148.8,299.164,292.144,-64.1088
12181,141288,299.163,292.465,-60.6848
12193,141427.2,299.165,292.767,-57.3644
12205,141566.4,299.167,293.053,-54.2098
12217,141705.6,299.173,293.325,-51.1985
12229,141844.8,299.171,293.581,-48.349
12241,141984,299.163,293.822,-45.6628
12253,142123.2,299.157,294.049,-43.0928
12265,142262.4,299.157,294.263,-40.6198
12277,142401.6,299.16,294.464,-38.2394
12289,142540.8,299.164,294.655,-36.0253
12301,142680,299.166,294.836,-33.9616
12313,142819.2,299.16,295.007,-32.06798
12325,142958.4,299.153,295.17,-30.2954
12337,143097.6,299.152,295.324,-28.6043
12349,143236.8,299.152,295.469,-27.0104
12361,143376,299.156,295.606,-25.5084
12373,143515.2,299.162,295.736,-24.0722
12385,143654.4,299.161,295.859,-22.726
12397,143793.6,299.152,295.977,-21.4872
12409,143932.8,299.147,296.086,-20.2799
12421,144072,299.147,296.188,-19.1285
12433,144211.2,299.151,296.285,-18.0264
12445,144350.4,299.155,296.377,-16.9678
12457,144489.6,299.16,296.465,-15.9471
12469,144628.8,299.154,296.547,-15.0434
12481,144768,299.146,296.624,-14.1899
12493,144907.2,299.143,296.697,-13.3577
12505,145046.4,299.146,296.765,-12.5421
12517,145185.6,299.151,296.829,-11.7642
12529,145324.8,299.156,296.89,-11.0626
12541,145464,299.159,296.949,-10.3989
12553,145603.2,299.154,297.004,-9.772929
12565,145742.4,299.149,297.055,-9.186069
12577,145881.6,299.15,297.103,-8.619056
12589,146020.8,299.152,297.149,-8.096951
12601,146160,299.155,297.192,-7.602738
12613,146299.2,299.161,297.233,-7.146719
12625,146438.4,299.16,297.274,-6.736948
12637,146577.6,299.154,297.31,-6.344065
12649,146716.8,299.15,297.346,-5.95276
12661,146856,299.15,297.379,-5.589152
12673,146995.2,299.153,297.409,-5.208233
12685,147134.4,299.158,297.438,-4.851044
12697,147273.6,299.157,297.467,-4.540243
12709,147412.8,299.151,297.494,-4.279439
12721,147552,299.145,297.517,-4.014199
12733,147691.2,299.145,297.539,-3.712401
12745,147830.4,299.149,297.561,-3.462818
12757,147969.6,299.153,297.582,-3.226299
12769,148108.8,299.157,297.602,-3.00353
12781,148248,299.155,297.621,-2.811507
12793,148387.2,299.149,297.638,-2.623617
12805,148526.4,299.146,297.654,-2.425263
12817,148665.6,299.146,297.669,-2.233097
12829,148804.8,299.151,297.683,-2.043513
12841,148944,299.157,297.697,-1.870935
12853,149083.2,299.156,297.711,-1.714843
12865,149222.4,299.147,297.722,-1.597732
12877,149361.6,299.14,297.734,-1.463455
12889,149500.8,299.141,297.744,-1.321801
12901,149640,299.144,297.752,-1.159206
12913,149779.2,299.149,297.761,-1.029576
12925,149918.4,299.155,297.77,-0.922953
12937,150057.6,299.155,297.779,-0.833329
12949,150196.8,299.15,297.786,-0.742334
12961,150336,299.147,297.794,-0.664387
12973,150475.2,299.148,297.8,-0.576142
12985,150614.4,299.153,297.807,-0.498026
12997,150753.6,299.158,297.814,-0.444633
13009,150892.8,299.162,297.821,-0.395017
13021,151032,299.158,297.828,-0.362225
13033,151171.2,299.154,297.834,-0.322567
13045,151310.4,299.152,297.839,-0.266086
13057,151449.6,299.152,297.845,-0.228661
13069,151588.8,299.155,297.85,-0.17819
13081,151728,299.162,297.856,-0.138019
13093,151867.2,299.163,297.8624,-0.131667
13105,152006.4,299.16,297.868,-0.143511
13117,152145.6,299.155,297.874,-0.156041
13129,152284.8,299.154,297.879,-0.129776
13141,152424,299.157,297.884,-0.088062
13153,152563.2,299.159,297.889,-0.029697
13165,152702.4,299.164,297.895,-0.004806
13177,152841.6,299.166,297.9,-0.007038
13189,152980.8,299.163,297.906,-0.008583
13201,153120,299.161,297.912,0.045489
13213,153259.2,299.161,297.916,0.024375
13225,153398.4,299.162,297.922,0.00618
13237,153537.6,299.165,297.928,-0.000515
13249,153676.8,299.164,297.934,0.002918
13261,153816,299.159,297.94,-0.008583
13273,153955.2,299.156,297.945,0.006866
13285,154094.4,299.154,297.95,0.03845
13297,154233.6,299.155,297.954,0.037934
13309,154372.8,299.158,297.9581,0.04686
13321,154512,299.158,297.963,0.047203
13333,154651.2,299.1567,297.967,0.050464
13345,154790.4,299.156,297.972,0.081189
13357,154929.6,299.155,297.976,0.126159
13369,155068.8,299.159,297.981,0.14607
13381,155208,299.162,297.985,0.130793
13393,155347.2,299.157,297.99,0.121008
13405,155486.4,299.154,297.993,0.123411
13417,155625.6,299.154,297.998,0.150873
13429,155764.8,299.154,298.001,0.152417
13441,155904,299.157,298.005,0.176447
13453,156043.2,299.157,298.008,0.208199
13465,156182.4,299.156,298.013,0.211975
13477,156321.6,299.153,298.016,0.221242
13489,156460.8,299.155,298.019,0.253853
13501,156600,299.157,298.022,0.251621
13513,156739.2,299.159,298.026,0.265351
13525,156878.4,299.158,298.03,0.347221
13537,157017.6,299.157,298.034,0.362666
13549,157156.8,299.155,298.037,0.366785
13561,157296,299.155,298.04,0.335374
13573,157435.2,299.1588,298.043,0.303621
13585,157574.4,299.16,298.048,0.294695
13597,157713.6,299.159,298.051,0.303962
13609,157852.8,299.158,298.054,0.30173
13621,157992,299.157,298.058,0.294863
13633,158131.2,299.157,298.061,0.287311
13645,158270.4,299.16,298.065,0.301212
13657,158409.6,299.161,298.068,0.327813
13669,158548.8,299.162,298.072,0.330215
13681,158688,299.161,298.077,0.321804
13693,158827.2,299.161,298.081,0.327809
13705,158966.4,299.161,298.085,0.285588
13717,159105.6,299.163,298.089,0.242165
13729,159244.8,299.163,298.094,0.204235
13741,159384,299.163,298.098,0.218479
13753,159523.2,299.164,298.103,0.218649
13765,159662.4,299.165,298.108,0.203545
13777,159801.6,299.164,298.113,0.183293
13789,159940.8,299.164,298.117,0.155146
13801,160080,299.163,298.123,0.137125
13813,160219.2,299.162,298.128,0.164584
13825,160358.4,299.161,298.132,0.17385
13837,160497.6,299.162,298.137,0.250735
13849,160636.8,299.163,298.142,0.223961
13861,160776,299.163,298.146,0.25468
13873,160915.2,299.163,298.151,0.314057
13885,161054.4,299.162,298.155,0.282822
13897,161193.6,299.161,298.16,0.297923
13909,161332.8,299.158,298.165,0.275612
13921,161472,299.155,298.169,0.246436
13933,161611.2,299.154,298.173,0.239228
13945,161750.4,299.154,298.177,0.226184
13957,161889.6,299.155,298.182,0.210395
13969,162028.8,299.154,298.185,0.215886
13981,162168,299.154,298.189,0.25158
13993,162307.2,299.154,298.192,0.262562
14005,162446.4,299.155,298.196,0.258614
14017,162585.6,299.157,298.2,0.272685
14029,162724.8,299.159,298.204,0.293105
14041,162864,299.16,298.207,0.31507
14053,163003.2,299.157,298.211,0.309406
14065,163142.4,299.157,298.214,0.293102
14077,163281.6,299.157,298.218,0.31438
14089,163420.8,299.155,298.221,0.330682
14101,163560,299.154,298.225,0.350415
14113,163699.2,299.155,298.228,0.373065
14125,163838.4,299.154,298.23,0.424202
14137,163977.6,299.153,298.234,0.436728
14149,164116.8,299.152,298.237,0.494213
14161,164256,299.154,298.239,0.499703
14173,164395.2,299.152,298.241,0.519951
14185,164534.4,299.152,298.244,0.514973
14197,164673.6,299.154,298.246,0.533677
14209,164812.8,299.153,298.248,0.545687
14221,164952,299.152,298.251,0.555124
14233,165091.2,299.152,298.252,0.570224
14245,165230.4,299.154,298.255,0.578974
14257,165369.6,299.153,298.256,0.579316
14269,165508.8,299.152,298.258,0.584291
14281,165648,299.153,298.261,0.598018
14293,165787.2,299.153,298.262,0.625987
14305,165926.4,299.153,298.264,0.624957
14317,166065.6,299.153,298.266,0.623754
14329,166204.8,299.153,298.267,0.642801
14341,166344,299.1526,298.268,0.639197
14353,166483.2,299.152,298.271,0.634733
14365,166622.4,299.151,298.272,0.669224
14377,166761.6,299.149,298.273,0.688785
14389,166900.8,299.149,298.274,0.691701
14401,167040,299.15,298.275,0.727221
14413,167179.2,299.149,298.276,0.74438
14425,167318.4,299.149,298.277,0.720699
14437,167457.6,299.15,298.278,0.71126
14449,167596.8,299.149,298.279,0.74781
14461,167736,299.148,298.279,0.778524
14473,167875.2,299.149,298.28,0.782299
14485,168014.4,299.151,298.281,0.787446
14497,168153.6,299.15,298.282,0.776807
14509,168292.8,299.151,298.283,0.78264
14521,168432,299.15,298.283,0.795681
14533,168571.2,299.15,298.284,0.797911
14545,168710.4,299.15,298.284,0.778178
14557,168849.6,299.152,298.285,0.812153
14569,168988.8,299.15,298.285,0.844069
14581,169128,299.15,298.286,0.866204
14593,169267.2,299.151,298.286,0.857109
14605,169406.4,299.151,298.287,0.862257
14617,169545.6,299.151,298.287,0.846813
14629,169684.8,299.151,298.287,0.838576
14641,169824,299.151,298.288,0.830854
14653,169963.2,299.151,298.288,0.821931
14665,170102.4,299.151,298.289,0.838403
14677,170241.6,299.151,298.29,0.861224
14689,170380.8,299.151,298.289,0.877183
14701,170520,299.151,298.29,0.856076
14713,170659.2,299.154,298.29,0.843721
14725,170798.4,299.152,298.291,0.840289
14737,170937.6,299.152,298.291,0.838916
14749,171076.8,299.152,298.292,0.83943
14761,171216,299.151,298.292,0.868772
14773,171355.2,299.15,298.293,0.866885
14785,171494.4,299.151,298.293,0.856589
14797,171633.6,299.152,298.294,0.868256
14809,171772.8,299.152,298.294,0.841488
14821,171912,299.151,298.295,0.822784
14833,172051.2,299.15,298.295,0.834452
14845,172190.4,299.147,298.295,0.852983
14857,172329.6,299.146,298.295,0.854699
14869,172468.8,299.147,298.295,0.873917
14881,172608,299.148,298.295,0.904633
14893,172747.2,299.15,298.295,0.919047
14897,172793.6,299.15,298.295,0.915958