File: i_data/0.25Kmin/H2O-NH3_8wt%.csv
NH3-H2O 8wt%  Specific Heat - Large HF,,,,
Creation Date : 7/14/2022 11:04:01 AM,,,,
User : admin,,,,
,,,,
HeatFlow :,,,,
 Initial Mass : 4550 mg,,,,
 Molar Mass : 17 g/mol,,,,
,,,,
Index,Time(s),Furnace Temperature(K),Sample Temperature(K),HeatFlow(mW)
1,0,298.949,298.777,11.5918
13,139.2,298.914,298.788,6.907378
25,278.4,298.887,298.796,3.849672
37,417.6,298.862,298.803,1.924139
49,556.8,298.836,298.807,0.756343
61,696,298.805,298.809,0.088326
73,835.2,298.764,298.811,-0.242681
85,974.4,298.708,298.809,-0.355704
97,1113.6,298.628,298.801,-0.302367
109,1252.8,298.521,298.791,-0.116969
121,1392,298.378,298.774,0.198268
133,1531.2,298.198,298.748,0.663596
145,1670.4,297.975,298.712,1.292248
157,1809.6,297.703,298.665,2.119939
169,1948.8,297.367,298.604,3.156856
181,2088,296.954,298.525,4.4362
193,2227.2,296.449,298.424,6.000841
205,2366.4,295.846,298.298,7.923922
217,2505.6,295.148,298.141,10.2694
229,2644.8,294.365,297.952,13.1
241,2784,293.511,297.727,16.4116
253,2923.2,292.603,297.463,20.2084
265,3062.4,291.652,297.162,24.4118
277,3201.6,290.665,296.824,28.9673
289,3340.8,289.653,296.446,33.7712
301,3480,288.621,296.032,38.7612
313,3619.2,287.575,295.584,43.8439
325,3758.4,286.526,295.101,48.9576
337,3897.6,285.478,294.587,54.0407
349,4036.8,284.435,294.043,59.0112
361,4176,283.397,293.474,63.8008
373,4315.2,282.369,292.882,68.3239
385,4454.4,281.348,292.269,72.5163
397,4593.6,280.335,291.633,76.408
409,4732.8,279.331,290.975,80.1412
421,4872,278.337,290.296,83.728
433,5011.2,277.351,289.598,87.1247
445,5150.4,276.372,288.886,90.3145
457,5289.6,275.404,288.158,93.2745
469,5428.8,274.441,287.418,95.9798
481,5568,273.484,286.667,98.4543
493,5707.2,272.539,285.905,100.706
505,5846.4,271.601,285.134,102.737
517,5985.6,270.671,284.354,104.563
529,6124.8,269.75,283.569,106.217
541,6264,268.839,282.775,107.699
553,6403.2,267.939,281.977,109.023
565,6542.4,267.05,281.176,110.186
577,6681.6,266.171,280.37,111.198
589,6820.8,265.303,279.562,112.074
601,6960,264.438,278.752,112.834
613,7099.2,263.58,277.94,113.526
625,7238.4,262.731,277.127,114.035
637,7377.6,261.89,276.313,114.449
649,7516.8,261.052,275.5,114.753
661,7656,260.221,274.686,114.985
673,7795.2,259.399,273.873,115.192
685,7934.4,258.585,273.061,115.357
697,8073.6,257.778,272.25,115.422
709,8212.8,256.979,271.442,115.396
721,8352,256.188,270.635,115.351
733,8491.2,255.402,269.831,115.145
745,8630.4,254.624,269.028,114.894
757,8769.6,253.853,268.229,114.693
769,8908.8,253.088,267.433,114.537
781,9048,252.327,266.639,114.298
793,9187.2,251.568,265.849,113.975
805,9326.4,250.813,265.062,113.627
817,9465.6,250.063,264.277,113.228
829,9604.8,249.317,263.496,112.978
841,9744,248.577,262.719,112.553
853,9883.2,247.844,261.944,112.133
865,10022.4,247.117,261.173,111.467
877,10161.6,246.398,260.405,110.884
889,10300.8,245.681,259.642,110.266
901,10440,244.969,258.883,109.804
913,10579.2,244.26,258.128,109.337
925,10718.4,243.555,257.375,108.762
937,10857.6,242.851,256.627,108.373
949,10996.8,242.148,255.882,107.929
961,11136,241.449,255.14,107.493
973,11275.2,240.755,254.402,106.879
985,11414.4,240.066,253.668,280.251
997,11553.6,239.381,252.952,670.882
1009,11692.8,238.703,252.237,627.714
1021,11832,238.029,251.524,568.475
1033,11971.2,237.363,250.812,512.641
1045,12110.4,236.701,250.103,460.008
1057,12249.6,236.043,249.397,413.312
1069,12388.8,235.391,248.693,371.302
1081,12528,234.738,247.991,333.216
1093,12667.2,234.088,247.292,298.659
1105,12806.4,233.441,246.597,268.696
1117,12945.6,232.796,245.905,242.717
1129,13084.8,232.154,245.216,220.801
1141,13224,231.513,244.529,202.458
1153,13363.2,230.877,243.845,187.032
1165,13502.4,230.245,243.165,175.28
1177,13641.6,229.616,242.488,164.026
1189,13780.8,228.993,241.815,154.511
1201,13920,228.376,241.145,146.017
1213,14059.2,227.763,240.478,138.971
1225,14198.4,227.152,239.816,133.189
1237,14337.6,226.543,239.156,127.785
1249,14476.8,225.935,238.5,123.379
1261,14616,225.332,237.848,118.694
1273,14755.2,224.73,237.199,114.374
1285,14894.4,224.131,236.553,110.558
1297,15033.6,223.535,235.911,106.74
1309,15172.8,222.943,235.271,103.542
1321,15312,222.352,234.635,100.75
1333,15451.2,221.762,234.002,98.0894
1345,15590.4,221.177,233.373,95.5752
1357,15729.6,220.594,232.746,93.2226
1369,15868.8,220.012,232.122,91.6498
1381,16008,219.432,231.5,89.8073
1393,16147.2,218.856,230.882,87.9909
1405,16286.4,218.285,230.268,85.8281
1417,16425.6,217.717,229.656,83.7872
1429,16564.8,217.15,229.047,82.0761
1441,16704,216.587,228.441,80.4069
1453,16843.2,216.029,227.838,79.0339
1465,16982.4,215.473,227.238,77.4835
1477,17121.6,214.918,226.641,76.4571
1489,17260.8,214.368,226.047,75.0252
1501,17400,213.822,225.456,73.5354
1513,17539.2,213.282,224.867,72.1458
1525,17678.4,212.743,224.283,70.7283
1537,17817.6,212.209,223.702,69.3101
1549,17956.8,211.678,223.123,68.0076
1561,18096,211.15,222.548,67.15109
1573,18235.2,210.623,221.976,66.48117
1585,18374.4,210.1,221.407,65.5623
1597,18513.6,209.582,220.841,64.46305
1609,18652.8,209.069,220.277,62.95008
1621,18792,208.555,219.718,62.1832
1633,18931.2,208.045,219.161,60.9527
1645,19070.4,207.537,218.607,60.0371
1657,19209.6,207.032,218.055,59.7082
1669,19348.8,206.526,217.508,59.3643
1681,19488,206.023,216.963,58.3531
1693,19627.2,205.523,216.421,57.3644
1705,19766.4,205.027,215.881,56.3049
1717,19905.6,204.53,215.344,55.3589
1729,20044.8,204.037,214.811,54.7734
1741,20184,203.546,214.279,53.961
1753,20323.2,203.058,213.751,53.2063
1765,20462.4,202.57,213.224,52.3717
1777,20601.6,202.085,212.699,51.6648
1789,20740.8,201.603,212.178,51.2218
1801,20880,201.125,211.659,50.424
1813,21019.2,200.651,211.143,49.5415
1825,21158.4,200.183,210.629,49.1444
1837,21297.6,199.718,210.118,48.6875
1849,21436.8,199.257,209.61,48.1532
1861,21576,198.799,209.106,47.6176
1873,21715.2,198.344,208.605,47.3078
1885,21854.4,197.894,208.104,46.9532
1897,21993.6,197.447,207.609,46.06103
1909,22132.8,197.001,207.115,45.5562
1921,22272,196.559,206.625,45.4278
1933,22411.2,196.119,206.137,44.4203
1945,22550.4,195.683,205.653,43.8234
1957,22689.6,195.248,205.171,43.2423
1969,22828.8,194.814,204.693,42.9519
1981,22968,194.383,204.216,42.4565
1993,23107.2,193.953,203.742,41.9874
2005,23246.4,193.526,203.271,41.55191
2017,23385.6,193.102,202.803,40.8075
2029,23524.8,192.678,202.337,40.3546
2041,23664,192.256,201.873,39.8143
2053,23803.2,191.837,201.413,39.4836
2065,23942.4,191.42,200.954,39.37799
2077,24081.6,191.005,200.498,39.08376
2089,24220.8,190.592,200.044,38.6519
2101,24360,190.182,199.593,38.0824
2113,24499.2,189.775,199.145,37.6829
2125,24638.4,189.368,198.698,37.4261
2137,24777.6,188.96,198.254,36.4955
2149,24916.8,188.552,197.812,36.0358
2161,25056,188.144,197.372,35.9258
2173,25195.2,187.737,196.933,35.6075
2185,25334.4,187.331,196.498,34.87417
2197,25473.6,186.93,196.063,34.6435
2209,25612.8,186.533,195.631,34.2226
2221,25752,186.143,195.201,34.1108
2233,25891.2,185.755,194.774,33.3181
2245,26030.4,185.368,194.348,33.55878
2257,26169.6,184.982,193.925,32.936
2269,26308.8,184.596,193.504,32.4651
2281,26448,184.21,193.085,31.9701
2293,26587.2,183.824,192.668,31.461
2305,26726.4,183.442,192.252,31.3331
2317,26865.6,183.064,191.84,31.0457
2329,27004.8,182.691,191.428,31.072
2341,27144,182.322,191.02,30.2844
2353,27283.2,181.954,190.612,30.6997
2365,27422.4,181.588,190.208,30.1654
2377,27561.6,181.222,189.806,29.9639
2389,27700.8,180.857,189.405,29.8866
2401,27840,180.492,189.007,29.7854
2413,27979.2,180.131,188.611,29.329
2425,28118.4,179.774,188.216,29.3687
2437,28257.6,179.421,187.824,29.11242
2449,28396.8,179.069,187.433,28.7512
2461,28536,178.718,187.045,28.4811
2473,28675.2,178.367,186.66,28.2361
2485,28814.4,178.016,186.275,28.1485
2497,28953.6,177.664,185.893,27.7601
2509,29092.8,177.311,185.513,27.22274
2521,29232,176.962,185.134,27.1683
2533,29371.2,176.616,184.756,26.736
2545,29510.4,176.276,184.381,26.5219
2557,29649.6,175.937,184.007,26.2856
2569,29788.8,175.599,183.636,25.726
2581,29928,175.261,183.266,25.5601
2593,30067.2,174.923,182.898,25.3805
2605,30206.4,174.584,182.531,25.6483
2617,30345.6,174.246,182.166,25.4544
2629,30484.8,173.911,181.803,24.9356
2641,30624,173.582,181.441,24.6722
2653,30763.2,173.254,181.082,24.6405
2665,30902.4,172.93,180.723,24.2409
2677,31041.6,172.608,180.366,23.6966
2689,31180.8,172.289,180.013,23.6523
2701,31320,171.972,179.66,23.8872
2713,31459.2,171.656,179.31,23.7956
2725,31598.4,171.339,178.962,23.5555
2737,31737.6,171.022,178.614,23.214
2749,31876.8,170.706,178.268,22.9312
2761,32016,170.391,177.925,22.8772
2773,32155.2,170.075,177.582,22.4644
2785,32294.4,169.763,177.242,22.2915
2797,32433.6,169.453,176.903,21.8414
2809,32572.8,169.148,176.565,21.9252
2821,32712,168.845,176.229,21.6461
2833,32851.2,168.544,175.895,21.8115
2845,32990.4,168.244,175.563,22.01117
2857,33129.6,167.945,175.232,22.0341
2869,33268.8,167.647,174.9028,21.633
2881,33408,167.351,174.575,21.4386
2893,33547.2,167.053,174.25,21.263
2905,33686.4,166.756,173.926,20.9648
2917,33825.6,166.461,173.603,20.482
2929,33964.8,166.166,173.282,20.2821
2941,34104,165.871,172.961,20.339
2953,34243.2,165.577,172.642,20.1724
2965,34382.4,165.289,172.325,20.1397
2977,34521.6,165.005,172.009,19.9823
2989,34660.8,164.723,171.696,19.6442
3001,34800,164.443,171.383,19.4818
3013,34939.2,164.162,171.073,19.6699
3025,35078.4,163.883,170.763,19.5117
3037,35217.6,163.605,170.456,19.2116
3049,35356.8,163.327,170.15,19.1845
3061,35496,163.048,169.845,18.9476
3073,35635.2,162.77,169.541,18.5074
3085,35774.4,162.497,169.239,18.4203
3097,35913.6,162.226,168.939,18.3607
3109,36052.8,161.957,168.64,18.31532
3121,36192,161.689,168.344,18.4805
3133,36331.2,161.422,168.048,18.323
3145,36470.4,161.157,167.752,18.1528
3157,36609.6,160.891,167.46,18.0542
3169,36748.8,160.625,167.168,17.93678
3181,36888,160.359,166.879,17.7289
3193,37027.2,160.098,166.589,17.653
3205,37166.4,159.838,166.302,17.2542
3217,37305.6,159.58,166.015,16.9814
3229,37444.8,159.324,165.73,16.9175
3241,37584,159.067,165.447,17.0329
3253,37723.2,158.811,165.165,16.8308
3265,37862.4,158.556,164.884,16.8621
3277,38001.6,158.298,164.605,17.0518
3289,38140.8,158.04,164.327,16.87727
3301,38280,157.785,164.05,16.7442
3313,38419.2,157.532,163.773,16.8389
3325,38558.4,157.282,163.499,16.5915
3337,38697.6,157.0325,163.225,16.387
3349,38836.8,156.783,162.952,16.3163
3361,38976,156.535,162.681,16.0767
3373,39115.2,156.291,162.412,15.81249
3385,39254.4,156.047,162.142,15.7251
3397,39393.6,155.802,161.875,15.742
3409,39532.8,155.557,161.609,15.6846
3421,39672,155.311,161.344,15.594
3433,39811.2,155.07,161.079,15.5307
3445,39950.4,154.829,160.816,15.3417
3457,40089.6,154.587,160.554,15.298
3469,40228.8,154.345,160.293,15.2879
3481,40368,154.103,160.032,15.27272
3493,40507.2,153.865,159.773,15.384
3505,40646.4,153.627,159.515,15.1734
3517,40785.6,153.39,159.258,15.0219
3529,40924.8,153.155,159.002,14.9981
3541,41064,152.9215,158.748,14.9569
3553,41203.2,152.692,158.494,14.6789
3565,41342.4,152.464,158.242,14.6969
3577,41481.6,152.238,157.99,14.71777
3589,41620.8,152.014,157.74,14.5325
3601,41760,151.791,157.491,14.3232
3613,41899.2,151.567,157.244,14.0911
3625,42038.4,151.339,156.997,13.98848
3637,42177.6,151.108,156.75,13.8716
3649,42316.8,150.88,156.506,14.1163
3661,42456,150.656,156.262,14.0052
3673,42595.2,150.438,156.019,13.7574
3685,42734.4,150.222,155.777,13.7765
3697,42873.6,150.009,155.538,13.7043
3709,43012.8,149.798,155.298,13.7423
3721,43152,149.588,155.061,13.5499
3733,43291.2,149.377,154.824,13.2894
3745,43430.4,149.163,154.589,13.0243
3757,43569.6,148.948,154.355,13.0449
3769,43708.8,148.736,154.122,13.1268
3781,43848,148.524,153.888,13.0803
3793,43987.2,148.314,153.657,12.8669
3805,44126.4,148.106,153.427,13.063
3817,44265.6,147.899,153.198,12.9701
3829,44404.8,147.692,152.97,12.8877
3841,44544,147.484,152.743,12.8602
3853,44683.2,147.277,152.517,12.8865
3865,44822.4,147.071,152.292,12.59
3877,44961.6,146.87,152.067,12.375
3889,45100.8,146.669,151.844,12.3772
3901,45240,146.47,151.622,12.2041
3913,45379.2,146.274,151.401,12.3577
3925,45518.4,146.079,151.181,12.2167
3937,45657.6,145.887,150.963,12.0875
3949,45796.8,145.697,150.7451,11.95981
3961,45936,145.506,150.529,11.963
3973,46075.2,145.315,150.314,12.0169
3985,46214.4,145.121,150.101,12.1689
3997,46353.6,144.926,149.888,11.97811
4009,46492.8,144.733,149.676,11.7142
4021,46632,144.542,149.465,11.7064
4033,46771.2,144.352,149.255,11.5731
4045,46910.4,144.163,149.045,11.426
4057,47049.6,143.977,148.837,11.4657
4069,47188.8,143.793,148.63,11.6496
4081,47328,143.611,148.424,11.5035
4093,47467.2,143.431,148.219,11.2536
4105,47606.4,143.25,148.015,11.1956
4117,47745.6,143.071,147.812,11.0288
4129,47884.8,142.893,147.61,10.9435
4141,48024,142.713,147.41,10.904
4153,48163.2,142.536,147.21,10.7152
4165,48302.4,142.359,147.012,10.61342
4177,48441.6,142.183,146.814,10.6393
4189,48580.8,142.009,146.618,10.5599
4201,48720,141.835,146.422,10.5694
4213,48859.2,141.6603,146.229,10.6207
4225,48998.4,141.486,146.035,10.4831
4237,49137.6,141.313,145.842,10.343
4249,49276.8,141.14,145.65,10.1195
4261,49416,140.969,145.459,9.979496
4273,49555.2,140.797,145.2694,10.00287
4285,49694.4,140.627,145.08,10.10106
4297,49833.6,140.459,144.892,10.062
4309,49972.8,140.29,144.704,10.0091
4321,50112,140.125,144.518,10.1561
4333,50251.2,139.958,144.332,9.987601
4345,50390.4,139.792,144.148,9.819446
4357,50529.6,139.627,143.964,9.786687
4369,50668.8,139.462,143.782,9.565549
4381,50808,139.297,143.599,9.504775
4393,50947.2,139.135,143.418,9.660629
4405,51086.4,138.974,143.238,9.587812
4417,51225.6,138.814,143.0577,9.406799
4429,51364.8,138.654,142.879,9.434584
4441,51504,138.496,142.702,9.305461
4453,51643.2,138.337,142.526,9.124342
4465,51782.4,138.177,142.349,9.074833
4477,51921.6,138.016,142.174,9.065011
4489,52060.8,137.856,142,9.139765
4501,52200,137.697,141.825,9.143539
4513,52339.2,137.535,141.652,9.170071
4525,52478.4,137.367,141.478,9.083641
4537,52617.6,137.194,141.305,9.077558
4549,52756.8,137.022,141.132,8.980108
4561,52896,136.852,140.96,8.962095
4573,53035.2,136.687,140.787,8.814446
4585,53174.4,136.524,140.615,8.88765
4597,53313.6,136.363,140.444,8.919233
4609,53452.8,136.204,140.273,8.91474
4621,53592,136.049,140.102,8.781709
4633,53731.2,135.897,139.933,8.720189
4645,53870.4,135.742,139.765,8.70199
4657,54009.6,135.584,139.596,8.735272
4669,54148.8,135.42,139.428,8.619643
4681,54288,135.257,139.26,8.512878
4693,54427.2,135.097,139.092,8.567604
4705,54566.4,134.942,138.926,8.548094
4717,54705.6,134.787,138.759,8.646323
4729,54844.8,134.629,138.592,8.565453
4741,54984,134.468,138.427,8.4818
4753,55123.2,134.309,138.262,8.358384
4765,55262.4,134.153,138.096,8.332338
4777,55401.6,134.004,137.932,8.24822
4789,55540.8,133.855,137.768,8.173344
4801,55680,133.704,137.605,8.22781
4813,55819.2,133.552,137.442,8.15512
4825,55958.4,133.4,137.28,8.206743
4837,56097.6,133.252,137.119,8.188931
4849,56236.8,133.111,136.958,8.20178
4861,56376,132.969,136.797,8.038897
4873,56515.2,132.826,136.638,8.02108
4885,56654.4,132.679,136.48,8.061599
4897,56793.6,132.531,136.322,7.989513
4909,56932.8,132.387,136.164,7.895397
4921,57072,132.248,136.008,7.952982
4933,57211.2,132.11,135.851,7.897725
4945,57350.4,131.971,135.696,7.813477
4957,57489.6,131.829,135.54,7.808223
4969,57628.8,131.687,135.386,7.7563
4981,57768,131.548,135.233,7.740833
4993,57907.2,131.413,135.08,7.655037
5005,58046.4,131.28,134.928,7.58527
5017,58185.6,131.141,134.777,7.594762
5029,58324.8,130.996,134.626,7.587795
5041,58464,130.847,134.475,7.531064
5053,58603.2,130.6995,134.325,7.405
5065,58742.4,130.555,134.175,7.368255
5077,58881.6,130.42,134.025,7.442132
5089,59020.8,130.287,133.876,7.388765
5101,59160,130.154,133.727,7.338775
5113,59299.2,130.013,133.579,7.284438
5125,59438.4,129.867,133.431,7.277602
5137,59577.6,129.718,133.284,7.340377
5149,59716.8,129.57,133.136,7.361196
5161,59856,129.426,132.988,7.209038
5173,59995.2,129.289,132.841,7.205888
5185,60134.4,129.159,132.694,7.172096
5197,60273.6,129.035,132.548,7.062888
5209,60412.8,128.916,132.403,6.979055
5221,60552,128.799,132.26,6.993077
5233,60691.2,128.674,132.118,7.058009
5245,60830.4,128.542,131.975,7.004351
5257,60969.6,128.403,131.834,6.918476
5269,61108.8,128.26,131.691,6.885979
5281,61248,128.119,131.549,6.999202
5293,61387.2,127.983,131.409,6.928768
5305,61526.4,127.855,131.267,6.911346
5317,61665.6,127.733,131.127,6.76728
5329,61804.8,127.611,130.987,6.722239
5341,61944,127.48,130.849,6.731662
5353,62083.2,127.341,130.709,6.734628
5365,62222.4,127.197,130.57,6.711482
5377,62361.6,127.052,130.431,6.751708
5389,62500.8,126.908,130.291,6.733757
5401,62640,126.767,130.152,6.721466
5413,62779.2,126.631,130.012,6.65736
5425,62918.4,126.5,129.873,6.623955
5437,63057.6,126.373,129.733,6.632346
5449,63196.8,126.254,129.596,6.568747
5461,63336,126.142,129.459,6.575648
5473,63475.2,126.035,129.322,6.479823
5485,63614.4,125.929,129.188,6.429538
5497,63753.6,125.821,129.054,6.441733
5509,63892.8,125.712,128.922,6.366279
5521,64032,125.608,128.79,6.327503
5533,64171.2,125.506,128.661,6.219043
5545,64310.4,125.403,128.532,6.135984
5557,64449.6,125.292,128.404,6.094075
5569,64588.8,125.175,128.277,5.979585
5581,64728,125.051,128.15,6.017192
5593,64867.2,124.925,128.023,5.984465
5605,65006.4,124.801,127.896,5.92241
5617,65145.6,124.68,127.769,5.895918
5629,65284.8,124.569,127.643,5.890111
5641,65424,124.46,127.517,5.899543
5653,65563.2,124.352,127.393,5.7953
5665,65702.4,124.239,127.268,5.735284
5677,65841.6,124.122,127.144,5.723179
5689,65980.8,124.004,127.021,5.843229
5701,66120,123.888,126.898,5.790304
5713,66259.2,123.779,126.775,5.739256
5725,66398.4,123.676,126.653,5.732605
5737,66537.6,123.569,126.532,5.676938
5749,66676.8,123.456,126.41,5.569054
5761,66816,123.336,126.29,5.566984
5773,66955.2,123.211,126.169,5.513557
5785,67094.4,123.086,126.048,5.468733
5797,67233.6,122.962,125.927,5.484763
5809,67372.8,122.841,125.806,5.438756
5821,67512,122.721,125.685,5.419815
5833,67651.2,122.604,125.564,5.398597
5845,67790.4,122.493,125.443,5.44912
5857,67929.6,122.389,125.324,5.473886
5869,68068.8,122.294,125.205,5.441656
5881,68208,122.206,125.087,5.395588
5893,68347.2,122.125,124.97,5.34547
5905,68486.4,122.046,124.855,5.331524
5917,68625.6,121.968,124.741,5.260645
5929,68764.8,121.89,124.63,5.220308
5941,68904,121.815,124.519,5.097843
5953,69043.2,121.738,124.411,4.977382
5965,69182.4,121.659,124.303,4.925099
5977,69321.6,121.576,124.196,4.85857
5989,69460.8,121.494,124.091,4.821049
6001,69600,121.412,123.987,4.665461
6013,69739.2,121.331,123.884,4.578432
6025,69878.4,121.252,123.781,4.589024
6037,70017.6,121.176,123.679,4.597324
6049,70156.8,121.102,123.579,4.509151
6061,70296,121.024,123.48,4.394457
6073,70435.2,120.937,123.381,4.39435
6085,70574.4,120.839,123.282,4.349604
6097,70713.6,120.731,123.184,4.311644
6109,70852.8,120.619,123.084,4.269676
6121,70992,120.506,122.984,4.248452
6133,71131.2,120.393,122.884,4.275057
6145,71270.4,120.284,122.784,4.311119
6157,71409.6,120.177,122.683,4.370915
6169,71548.8,120.071,122.582,4.413666
6181,71688,119.969,122.481,4.351093
6193,71827.2,119.874,122.379,4.300454
6205,71966.4,119.783,122.279,4.307489
6217,72105.6,119.689,122.178,4.317385
6229,72244.8,119.59,122.078,4.326736
6241,72384,119.485,121.978,4.28996
6253,72523.2,119.378,121.878,4.31047
6265,72662.4,119.27,121.776,4.290902
6277,72801.6,119.167,121.675,4.293955
6289,72940.8,119.07,121.574,4.345852
6301,73080,118.979,121.473,4.342623
6313,73219.2,118.895,121.373,4.293936
6325,73358.4,118.813,121.274,4.26818
6337,73497.6,118.726,121.175,4.235191
6349,73636.8,118.63,121.076,4.227787
6361,73776,118.529,120.977,4.209142
6373,73915.2,118.424,120.879,4.227409
6385,74054.4,118.321,120.78,4.68542
6397,74193.6,118.22,120.68,4.5073
6409,74332.8,118.124,120.582,4.350019
6421,74472,118.033,120.483,4.306533
6433,74611.2,117.948,120.384,4.262676
6445,74750.4,117.87,120.286,4.208624
6457,74889.6,117.798,120.19,4.083734
6469,75028.8,117.733,120.094,4.035244
6481,75168,117.671,120,4.02756
6493,75307.2,117.613,119.908,3.956226
6505,75446.4,117.557,119.817,3.917921
6517,75585.6,117.502,119.728,3.819624
6529,75724.8,117.449,119.639,3.761921
6541,75864,117.397,119.553,3.73291
6553,76003.2,117.344,119.468,3.624042
6565,76142.4,117.291,119.385,3.584358
6577,76281.6,117.237,119.302,3.546955
6589,76420.8,117.185,119.221,3.455515
6601,76560,117.131,119.141,3.3835
6613,76699.2,117.071,119.061,3.326586
6625,76838.4,117,118.983,3.269587
6637,76977.6,116.919,118.904,3.242352
6649,77116.8,116.832,118.826,3.213625
6661,77256,116.742,118.747,3.18107
6673,77395.2,116.653,118.667,3.158445
6685,77534.4,116.567,118.587,3.162466
6697,77673.6,116.486,118.507,3.183499
6709,77812.8,116.411,118.427,3.190755
6721,77952,116.341,118.348,3.185116
6733,78091.2,116.277,118.269,3.179447
6745,78230.4,116.216,118.191,3.145859
6757,78369.6,116.16,118.113,3.14603
6769,78508.8,116.108,118.035,3.096213
6781,78648,116.054,117.961,3.045984
6793,78787.2,115.993,117.887,3.028374
6805,78926.4,115.923,117.812,3.024879
6817,79065.6,115.847,117.737,3.013147
6829,79204.8,115.768,117.663,2.992251
6841,79344,115.69,117.588,2.967806
6853,79483.2,115.617,117.513,2.961038
6865,79622.4,115.549,117.438,2.953974
6877,79761.6,115.485,117.364,2.934479
6889,79900.8,115.419,117.29,2.918217
6901,80040,115.35,117.216,2.909912
6913,80179.2,115.28,117.143,2.90366
6925,80318.4,115.213,117.07,2.876692
6937,80457.6,115.152,116.997,2.849393
6949,80596.8,115.097,116.925,2.828568
6961,80736,115.044,116.854,2.810378
6973,80875.2,114.992,116.784,2.782963
6985,81014.4,114.943,116.714,2.727617
6997,81153.6,114.897,116.646,2.698624
7009,81292.8,114.854,116.577,2.653863
7021,81432,114.81,116.511,2.62535
7033,81571.2,114.763,116.446,2.595914
7045,81710.4,114.714,116.38,2.558132
7057,81849.6,114.667,116.316,2.531294
7069,81988.8,114.621,116.252,2.49223
7081,82128,114.576,116.19,2.448049
7093,82267.2,114.529,116.127,2.424971
7105,82406.4,114.481,116.066,2.385774
7117,82545.6,114.437,116.005,2.354574
7129,82684.8,114.395,115.945,2.323051
7141,82824,114.354,115.885,2.291481
7153,82963.2,114.313,115.827,2.253308
7165,83102.4,114.272,115.769,2.216586
7177,83241.6,114.233,115.712,2.175646
7189,83380.8,114.196,115.656,2.140934
7201,83520,114.158,115.6,2.104097
7213,83659.2,114.118,115.546,2.063321
7225,83798.4,114.076,115.491,2.019834
7237,83937.6,114.03,115.438,1.977196
7249,84076.8,113.979,115.384,1.946499
7261,84216,113.922,115.331,1.924453
7273,84355.2,113.859,115.277,1.905703
7285,84494.4,113.793,115.222,1.902533
7297,84633.6,113.728,115.168,1.903843
7309,84772.8,113.66,115.113,1.921664
7321,84912,113.586,115.056,1.936212
7333,85051.2,113.501,115,1.960984
7345,85190.4,113.403,114.941,2.003216
7357,85329.6,113.294,114.88,2.050017
7369,85468.8,113.174,114.818,2.107394
7381,85608,113.05,114.753,2.176001
7393,85747.2,112.927,114.685,2.265757
7405,85886.4,112.808,114.615,2.343292
7417,86025.6,112.695,114.543,2.423349
7429,86164.8,112.59,114.47,2.498991
7441,86304,112.497,114.395,2.556354
7453,86443.2,112.412,114.32,2.602323
7465,86582.4,112.337,114.245,2.658594
7477,86721.6,112.272,114.17,2.669057
7489,86860.8,112.215,114.095,2.694005
7501,87000,112.165,114.021,2.687251
7513,87139.2,112.122,113.949,2.666839
7525,87278.4,112.082,113.878,2.633689
7537,87417.6,112.045,113.809,2.596236
7549,87556.8,112.009,113.74,2.537842
7561,87696,111.978,113.674,2.488753
7573,87835.2,111.952,113.609,2.441711
7585,87974.4,111.927,113.545,2.373073
7597,88113.6,111.903,113.483,2.303741
7609,88252.8,111.882,113.423,2.226424
7621,88392,111.864,113.365,2.156914
7633,88531.2,111.85,113.308,2.073051
7645,88670.4,111.838,113.254,1.976931
7657,88809.6,111.827,113.201,1.89561
7669,88948.8,111.817,113.149,1.820901
7681,89088,111.809,113.1,1.733641
7693,89227.2,111.802,113.053,1.653597
7705,89366.4,111.794,113.007,1.576226
7717,89505.6,111.784,112.962,1.507007
7729,89644.8,111.775,112.919,1.438948
7741,89784,111.766,112.878,1.374787
7753,89923.2,111.755,112.837,1.313938
7765,90062.4,111.744,112.798,1.264317
7777,90201.6,111.732,112.761,1.203676
7789,90340.8,111.72,112.724,1.154894
7801,90480,111.707,112.687,1.107
7813,90619.2,111.692,112.653,1.070957
7825,90758.4,111.677,112.619,1.021779
7837,90897.6,111.663,112.586,0.976537
7849,91036.8,111.649,112.553,0.944705
7861,91176,111.634,112.522,0.909185
7873,91315.2,111.618,112.491,0.866622
7885,91454.4,111.603,112.46,0.839619
7897,91593.6,111.589,112.43,0.812904
7909,91732.8,111.574,112.401,0.779147
7921,91872,111.558,112.373,0.7524
7933,92011.2,111.543,112.345,0.726558
7945,92150.4,111.528,112.317,0.704987
7957,92289.6,111.513,112.29,0.678507
7969,92428.8,111.494,112.264,0.655077
7981,92568,111.476,112.238,0.62368
7993,92707.2,111.458,112.212,0.605734
8005,92846.4,111.44,112.187,0.59758
8017,92985.6,111.419,112.161,0.576868
8029,93124.8,111.396,112.136,0.573603
8041,93264,111.372,112.111,0.556859
8053,93403.2,111.351,112.086,0.546543
8065,93542.4,111.332,112.062,0.534382
8077,93681.6,111.314,112.038,0.529266
8089,93820.8,111.296,112.013,0.526907
8101,93960,111.277,111.989,0.511364
8113,94099.2,111.259,111.966,0.50593
8125,94238.4,111.243,111.942,0.494977
8137,94377.6,111.226,111.919,0.482176
8149,94516.8,111.207,111.896,0.472439
8161,94656,111.189,111.873,0.453493
8173,94795.2,111.276,111.852,0.439447
8185,94934.4,111.846,111.84,0.313348
8197,95073.6,112.703,111.855,-0.064443
8209,95212.8,113.541,111.901,-0.728265
8221,95352,114.283,111.978,-1.596148
8233,95491.2,114.944,112.08,-2.557289
8245,95630.4,115.554,112.206,-3.553139
8257,95769.6,116.14,112.352,-4.49428
8269,95908.8,116.7172,112.517,-5.390233
8281,96048,117.294,112.699,-6.234537
8293,96187.2,117.873,112.898,-7.014879
8305,96326.4,118.454,113.113,-7.763256
8317,96465.6,119.035,113.344,-8.460734
8329,96604.8,119.617,113.589,-9.145308
8341,96744,120.2,113.849,-9.808687
8353,96883.2,120.782,114.122,-10.4533
8365,97022.4,121.365,114.41,-11.06334
8377,97161.6,121.947,114.709,-11.6628
8389,97300.8,122.528,115.021,-12.2422
8401,97440,123.108,115.343,-12.8158
8413,97579.2,123.689,115.677,-13.3764
8425,97718.4,124.27,116.022,-13.928
8437,97857.6,124.85,116.375,-14.4619
8449,97996.8,125.432,116.739,-15.0033
8461,98136,126.015,117.112,-15.5333
8473,98275.2,126.6,117.494,-16.0663
8485,98414.4,127.181,117.886,-16.6225
8497,98553.6,127.762,118.284,-17.1931
8509,98692.8,128.341,118.69,-17.7875
8521,98832,128.92,119.104,-18.4112
8533,98971.2,129.5,119.525,-19.0711
8545,99110.4,130.079,119.952,-19.79001
8557,99249.6,130.659,120.386,-20.5849
8569,99388.8,131.24,120.826,-21.4351
8581,99528,131.821,121.272,-22.3707
8593,99667.2,132.404,121.723,-23.363
8605,99806.4,132.985,122.18,-24.3472
8617,99945.6,133.564,122.641,-25.1985
8629,100084.8,134.144,123.108,-25.7641
8641,100224,134.724,123.58,-25.9375
8653,100363.2,135.305,124.056,-25.7797
8665,100502.4,135.884,124.537,-25.5079
8677,100641.6,136.466,125.021,-25.3221
8689,100780.8,137.048,125.51,-25.2959
8701,100920,137.629,126.002,-25.3579
8713,101059.2,138.208,126.499,-25.4777
8725,101198.4,138.788,126.999,-25.6718
8737,101337.6,139.369,127.502,-25.8623
8749,101476.8,139.948,128.008,-26.0702
8761,101616,140.527,128.517,-26.2765
8773,101755.2,141.107,129.029,-26.4866
8785,101894.4,141.689,129.544,-26.6936
8797,102033.6,142.27,130.063,-26.9115
8809,102172.8,142.851,130.583,-27.1183
8821,102312,143.432,131.106,-27.332
8833,102451.2,144.012,131.631,-27.5466
8845,102590.4,144.592,132.159,-27.75085
8857,102729.6,145.171,132.689,-27.9363
8869,102868.8,145.751,133.221,-28.1162
8881,103008,146.329,133.755,-28.3001
8893,103147.2,146.909,134.29,-28.4633
8905,103286.4,147.489,134.828,-28.6341
8917,103425.6,148.07,135.367,-28.7897
8929,103564.8,148.65,135.909,-28.9578
8941,103704,149.23,136.451,-29.0992
8953,103843.2,149.81,136.995,-29.2575
8965,103982.4,150.391,137.541,-29.3977
8977,104121.6,150.971,138.087,-29.5463
8989,104260.8,151.551,138.637,-29.68297
9001,104400,152.132,139.186,-29.8294
9013,104539.2,152.714,139.738,-29.9624
9025,104678.4,153.296,140.29,-30.10106
9037,104817.6,153.876,140.844,-30.2232
9049,104956.8,154.455,141.3991,-30.35068
9061,105096,155.033,141.955,-30.4894
9073,105235.2,155.612,142.513,-30.6149
9085,105374.4,156.192,143.071,-30.7295
9097,105513.6,156.771,143.63,-30.856
9109,105652.8,157.351,144.19,-30.9773
9121,105792,157.932,144.752,-31.0816
9133,105931.2,158.512,145.314,-31.1833
9145,106070.4,159.093,145.877,-31.285
9157,106209.6,159.672,146.44,-31.3732
9169,106348.8,160.252,147.003,-31.4351
9181,106488,160.834,147.569,-31.4671
9193,106627.2,161.413,148.135,-31.47164
9205,106766.4,161.993,148.702,-31.4123
9217,106905.6,162.572,149.268,-31.26558
9229,107044.8,163.153,149.836,-30.9999
9241,107184,163.734,150.403,-30.5702
9253,107323.2,164.315,150.973,-29.9166
9265,107462.4,164.896,151.543,-28.9498
9277,107601.6,165.477,152.114,-27.5734
9289,107740.8,166.058,152.685,-25.6543
9301,107880,166.637,153.256,-23.0205
9313,108019.2,167.216,153.828,-19.4624
9325,108158.4,167.796,154.401,-14.7405
9337,108297.6,168.375,154.974,-8.694694
9349,108436.8,168.954,155.548,-1.31067
9361,108576,169.534,156.123,7.149973
9373,108715.2,170.114,156.697,15.988
9385,108854.4,170.694,157.273,23.8438
9397,108993.6,171.274,157.848,29.1255
9409,109132.8,171.855,158.425,30.9943
9421,109272,172.436,159.002,30.11439
9433,109411.2,173.018,159.578,27.9414
9445,109550.4,173.598,160.155,25.7429
9457,109689.6,174.178,160.732,23.8209
9469,109828.8,174.757,161.31,21.9123
9481,109968,175.336,161.887,19.6689
9493,110107.2,175.916,162.465,16.7358
9505,110246.4,176.494,163.042,12.8408
9517,110385.6,177.073,163.621,8.101436
9529,110524.8,177.653,164.198,2.856601
9541,110664,178.233,164.776,-2.479602
9553,110803.2,178.814,165.354,-7.562448
9565,110942.4,179.395,165.932,-12.1548
9577,111081.6,179.976,166.51,-16.1262
9589,111220.8,180.558,167.089,-19.4346
9601,111360,181.138,167.668,-22.1656
9613,111499.2,181.718,168.247,-24.4043
9625,111638.4,182.297,168.825,-26.2628
9637,111777.6,182.877,169.405,-27.9521
9649,111916.8,183.455,169.985,-30.0074
9661,112056,184.035,170.565,-34.163
9673,112195.2,184.614,171.146,-45.6683
9685,112334.4,185.196,171.725,-66.025
9697,112473.6,185.777,172.305,-90.144
9709,112612.8,186.358,172.885,-90.6634
9721,112752,186.936,173.467,-27.0548
9733,112891.2,187.515,174.05,10.2031
9745,113030.4,188.096,174.635,13.7618
9757,113169.6,188.675,175.219,2.997075
9769,113308.8,189.254,175.803,-10.2776
9781,113448,189.834,176.386,-25.3316
9793,113587.2,190.414,176.97,-62.64164
9805,113726.4,190.995,177.551,-128.579
9817,113865.6,191.575,178.131,-190.548
9829,114004.8,192.156,178.71,-235.166
9841,114144,192.737,179.289,-272.925
9853,114283.2,193.318,179.868,-238.035
9865,114422.4,193.897,180.451,-152.84
9877,114561.6,194.476,181.036,-105.322
9889,114700.8,195.056,181.622,-78.2695
9901,114840,195.635,182.209,-62.6991
9913,114979.2,196.214,182.795,-53.7018
9925,115118.4,196.794,183.382,-48.52693
9937,115257.6,197.376,183.97,-45.5695
9949,115396.8,197.956,184.557,-43.8952
9961,115536,198.536,185.145,-42.9677
9973,115675.2,199.115,185.733,-42.511
9985,115814.4,199.695,186.321,-42.2777
9997,115953.6,200.276,186.909,-42.223
10009,116092.8,200.856,187.497,-42.2665
10021,116232,201.437,188.086,-42.366
10033,116371.2,202.016,188.675,-42.472
10045,116510.4,202.597,189.263,-42.6167
10057,116649.6,203.178,189.853,-42.7593
10069,116788.8,203.759,190.44,-42.9556
10081,116928,204.338,191.03,-43.1239
10093,117067.2,204.917,191.62,-43.3072
10105,117206.4,205.496,192.209,-43.4665
10117,117345.6,206.076,192.799,-43.6395
10129,117484.8,206.656,193.388,-43.8467
10141,117624,207.236,193.977,-44.0529
10153,117763.2,207.817,194.567,-44.2531
10165,117902.4,208.398,195.156,-44.4669
10177,118041.6,208.9765,195.746,-44.6891
10189,118180.8,209.557,196.336,-44.89536
10201,118320,210.136,196.925,-45.07459
10213,118459.2,210.717,197.516,-45.2654
10225,118598.4,211.295,198.106,-45.4564
10237,118737.6,211.876,198.696,-45.69011
10249,118876.8,212.457,199.286,-45.9293
10261,119016,213.037,199.876,-46.1758
10273,119155.2,213.616,200.466,-46.4172
10285,119294.4,214.196,201.057,-46.6601
10297,119433.6,214.777,201.646,-46.8787
10309,119572.8,215.357,202.238,-47.105
10321,119712,215.9368,202.828,-47.3587
10333,119851.2,216.517,203.418,-47.6213
10345,119990.4,217.097,204.009,-47.8757
10357,120129.6,217.677,204.599,-48.0807
10369,120268.8,218.257,205.19,-48.35546
10381,120408,218.836,205.78,-48.5989
10393,120547.2,219.417,206.371,-48.8365
10405,120686.4,219.997,206.962,-49.132
10417,120825.6,220.577,207.553,-49.43
10429,120964.8,221.157,208.143,-49.7463
10441,121104,221.738,208.734,-50.04613
10453,121243.2,222.318,209.325,-50.3642
10465,121382.4,222.898,209.916,-50.6995
10477,121521.6,223.479,210.508,-51.01157
10489,121660.8,224.059,211.099,-51.3209
10501,121800,224.639,211.69,-51.6309
10513,121939.2,225.218,212.28,-51.9686
10525,122078.4,225.798,212.872,-52.2509
10537,122217.6,226.377,213.463,-52.5802
10549,122356.8,226.957,214.054,-52.9723
10561,122496,227.537,214.645,-53.3453
10573,122635.2,228.117,215.236,-53.7789
10585,122774.4,228.699,215.827,-54.183
10597,122913.6,229.28,216.419,-54.6004
10609,123052.8,229.861,217.01,-55.0016
10621,123192,230.44,217.602,-55.4272
10633,123331.2,231.019,218.193,-55.8695
10645,123470.4,231.598,218.785,-56.2605
10657,123609.6,232.178,219.3757,-56.7304
10669,123748.8,232.757,219.968,-57.19701
10681,123888,233.337,220.558,-57.6305
10693,124027.2,233.917,221.15,-58.1046
10705,124166.4,234.499,221.741,-58.6057
10717,124305.6,235.079,222.333,-59.12825
10729,124444.8,235.658,222.925,-59.7463
10741,124584,236.238,223.516,-60.3279
10753,124723.2,236.818,224.108,-60.9282
10765,124862.4,237.397,224.699,-61.5075
10777,125001.6,237.977,225.29,-62.1009
10789,125140.8,238.557,225.882,-62.6917
10801,125280,239.138,226.473,-63.34235
10813,125419.2,239.719,227.064,-63.99
10825,125558.4,240.298,227.656,-64.6428
10837,125697.6,240.877,228.247,-65.3552
10849,125836.8,241.4571,228.838,-66.1317
10861,125976,242.036,229.429,-66.8847
10873,126115.2,242.617,230.021,-67.6882
10885,126254.4,243.197,230.612,-68.4114
10897,126393.6,243.777,231.203,-69.2077
10909,126532.8,244.358,231.794,-70.064
10921,126672,244.938,232.385,-70.9614
10933,126811.2,245.518,232.976,-71.8827
10945,126950.4,246.097,233.568,-72.8285
10957,127089.6,246.678,234.158,-73.8328
10969,127228.8,247.258,234.748,-74.8887
10981,127368,247.839,235.339,-75.9679
10993,127507.2,248.419,235.932,-77.0794
11005,127646.4,248.999,236.523,-78.2427
11017,127785.6,249.581,237.115,-79.4412
11029,127924.8,250.159,237.706,-80.7235
11041,128064,250.739,238.297,-82.0281
11053,128203.2,251.319,238.888,-83.4368
11065,128342.4,251.9,239.48,-84.88
11077,128481.6,252.479,240.071,-86.3058
11089,128620.8,253.059,240.662,-87.9004
11101,128760,253.639,241.253,-89.6058
11113,128899.2,254.219,241.844,-91.332
11125,129038.4,254.798,242.435,-93.1322
11137,129177.6,255.377,243.026,-95.0113
11149,129316.8,255.957,243.617,-96.986
11161,129456,256.536,244.208,-99.03988
11173,129595.2,257.118,244.799,-101.191
11185,129734.4,257.697,245.39,-103.419
11197,129873.6,258.277,245.98,-105.739
11209,130012.8,258.858,246.571,-108.184
11221,130152,259.439,247.162,-110.805
11233,130291.2,260.019,247.753,-113.582
11245,130430.4,260.597,248.342,-116.499
11257,130569.6,261.178,248.934,-119.547
11269,130708.8,261.758,249.524,-122.76
11281,130848,262.338,250.114,-126.195
11293,130987.2,262.918,250.7043,-129.836
11305,131126.4,263.499,251.294,-133.704
11317,131265.6,264.079,251.885,-137.722
11329,131404.8,264.658,252.476,-142.046
11341,131544,265.238,253.065,-146.56
11353,131683.2,265.819,253.655,-151.334
11365,131822.4,266.399,254.245,-156.373
11377,131961.6,266.979,254.835,-161.652
11389,132100.8,267.558,255.424,-167.259
11401,132240,268.139,256.014,-173.166
11413,132379.2,268.719,256.604,-179.348
11425,132518.4,269.298,257.1936,-185.902
11437,132657.6,269.877,257.783,-192.692
11449,132796.8,270.458,258.373,-199.486
11461,132936,271.039,258.963,-206.386
11473,133075.2,271.6176,259.551,-213.158
11485,133214.4,272.199,260.14,-216.614
11497,133353.6,272.778,260.728,-212.076
11509,133492.8,273.359,261.319,-208.35
11521,133632,273.938,261.908,-207.708
11533,133771.2,274.52,262.498,-207.477
11545,133910.4,275.101,263.087,-207.887
11557,134049.6,275.68,263.676,-209.576
11569,134188.8,276.259,264.267,-211.844
11581,134328,276.839,264.857,-216.211
11593,134467.2,277.418,265.446,-223.402
11605,134606.4,277.999,266.035,-235.342
11617,134745.6,278.579,266.624,-261.22
11629,134884.8,279.159,267.214,-265.627
11641,135024,279.739,267.803,-263.49
11653,135163.2,280.32,268.392,-253.046
11665,135302.4,280.899,268.981,-237.712
11677,135441.6,281.479,269.571,-221.552
11689,135580.8,282.058,270.162,-200.672
11701,135720,282.637,270.753,-160.256
11713,135859.2,283.217,271.344,-132.682
11725,135998.4,283.7984,271.937,-114.764
11737,136137.6,284.379,272.53,-103.172
11749,136276.8,284.958,273.122,-95.7111
11761,136416,285.54,273.714,-90.9103
11773,136555.2,286.119,274.308,-87.8574
11785,136694.4,286.699,274.9,-85.8671
11797,136833.6,287.279,275.492,-84.6329
11809,136972.8,287.859,276.085,-83.84127
11821,137112,288.439,276.676,-83.3288
11833,137251.2,289.02,277.268,-83.0028
11845,137390.4,289.599,277.861,-82.7921
11857,137529.6,290.179,278.452,-82.6643
11869,137668.8,290.76,279.044,-82.593
11881,137808,291.34,279.636,-82.5411
11893,137947.2,291.919,280.227,-82.4904
11905,138086.4,292.499,280.819,-82.4786
11917,138225.6,293.079,281.411,-82.4803
11929,138364.8,293.659,282.002,-82.4881
11941,138504,294.238,282.593,-82.5634
11953,138643.2,294.819,283.183,-82.6397
11965,138782.4,295.399,283.775,-82.7356
11977,138921.6,295.978,284.365,-82.8008
11989,139060.8,296.557,284.956,-82.8556
12001,139200,297.138,285.546,-82.8911
12013,139339.2,297.719,286.135,-82.9473
12025,139478.4,298.297,286.726,-83.049
12037,139617.6,298.878,287.316,-83.1049
12049,139756.8,299.319,287.905,-83.1156
12061,139896,299.315,288.475,-82.9653
12073,140035.2,299.275,289.016,-82.4077
12085,140174.4,299.241,289.527,-81.1418
12097,140313.6,299.218,290.009,-79.1946
12109,140452.8,299.205,290.464,-76.6667
12121,140592,299.197,290.894,-73.7574
12133,140731.2,299.191,291.3,-70.6055
12145,140870.4,299.189,291.684,-67.3332
12157,141009.6,299.186,292.046,-64.0603
12169,141148.8,299.185,292.39,-60.8479
12181,141288,299.183,292.714,-57.79249
12193,141427.2,299.182,293.019,-54.8331
12205,141566.4,299.179,293.309,-52.13198
12217,141705.6,299.178,293.581,-49.4928
12229,141844.8,299.177,293.839,-46.9099
12241,141984,299.175,294.083,-44.449
12253,142123.2,299.173,294.312,-42.0865
12265,142262.4,299.173,294.53,-39.8359
12277,142401.6,299.171,294.735,-37.6875
12289,142540.8,299.17,294.93,-35.6842
12301,142680,299.168,295.115,-33.7951
12313,142819.2,299.168,295.29,-32.0357
12325,142958.4,299.168,295.456,-30.41462
12337,143097.6,299.167,295.614,-28.8761
12349,143236.8,299.166,295.763,-27.4295
12361,143376,299.165,295.904,-26.0453
12373,143515.2,299.164,296.038,-24.6953
12385,143654.4,299.163,296.165,-23.3635
12397,143793.6,299.162,296.284,-22.1125
12409,143932.8,299.162,296.397,-20.9378
12421,144072,299.161,296.504,-19.8293
12433,144211.2,299.161,296.605,-18.7778
12445,144350.4,299.159,296.7,-17.7864
12457,144489.6,299.16,296.79,-16.8436
12469,144628.8,299.16,296.876,-15.95069
12481,144768,299.159,296.956,-15.1044
12493,144907.2,299.158,297.032,-14.3015
12505,145046.4,299.157,297.103,-13.5519
12517,145185.6,299.157,297.171,-12.8335
12529,145324.8,299.156,297.234,-12.1514
12541,145464,299.1568,297.296,-11.508
12553,145603.2,299.156,297.353,-10.8919
12565,145742.4,299.156,297.407,-10.3165
12577,145881.6,299.155,297.457,-9.763381
12589,146020.8,299.155,297.506,-9.242759
12601,146160,299.155,297.551,-8.751745
12613,146299.2,299.154,297.593,-8.284674
12625,146438.4,299.154,297.634,-7.843234
12637,146577.6,299.154,297.672,-7.426577
12649,146716.8,299.153,297.709,-7.034856
12661,146856,299.153,297.743,-6.667558
12673,146995.2,299.153,297.775,-6.318663
12685,147134.4,299.152,297.805,-5.993841
12697,147273.6,299.153,297.833,-5.686385
12709,147412.8,299.152,297.861,-5.39337
12721,147552,299.152,297.887,-5.115315
12733,147691.2,299.151,297.91,-4.862346
12745,147830.4,299.151,297.933,-4.612309
12757,147969.6,299.151,297.955,-4.375164
12769,148108.8,299.151,297.974,-4.152112
12781,148248,299.152,297.994,-3.940911
12793,148387.2,299.152,298.012,-3.746374
12805,148526.4,299.153,298.029,-3.556653
12817,148665.6,299.152,298.046,-3.376037
12829,148804.8,299.152,298.061,-3.221689
12841,148944,299.152,298.076,-3.065634
12853,149083.2,299.152,298.09,-2.916448
12865,149222.4,299.151,298.1024,-2.778254
12877,149361.6,299.152,298.115,-2.646586
12889,149500.8,299.152,298.126,-2.517156
12901,149640,299.152,298.136,-2.392535
12913,149779.2,299.151,298.146,-2.277871
12925,149918.4,299.151,298.157,-2.166298
12937,150057.6,299.151,298.166,-2.06108
12949,150196.8,299.152,298.174,-1.961699
12961,150336,299.152,298.183,-1.866954
12973,150475.2,299.151,298.191,-1.775643
12985,150614.4,299.151,298.198,-1.693602
12997,150753.6,299.15,298.205,-1.617225
13009,150892.8,299.151,298.211,-1.539478
13021,151032,299.15,298.217,-1.469282
13033,151171.2,299.15,298.223,-1.398744
13045,151310.4,299.151,298.228,-1.325977
13057,151449.6,299.151,298.233,-1.253555
13069,151588.8,299.15,298.238,-1.186453
13081,151728,299.152,298.243,-1.110085
13093,151867.2,299.15,298.248,-1.035262
13105,152006.4,299.151,298.252,-0.962672
13117,152145.6,299.15,298.256,-0.893513
13129,152284.8,299.151,298.259,-0.831563
13141,152424,299.15,298.263,-0.769786
13153,152563.2,299.15,298.266,-0.707493
13165,152702.4,299.15,298.269,-0.65567
13177,152841.6,299.151,298.273,-0.596123
13189,152980.8,299.151,298.275,-0.534348
13201,153120,299.15,298.278,-0.472915
13213,153259.2,299.15,298.28,-0.417146
13225,153398.4,299.15,298.283,-0.365838
13237,153537.6,299.15,298.285,-0.319679
13249,153676.8,299.15,298.287,-0.27352
13261,153816,299.15,298.289,-0.239715
13273,153955.2,299.15,298.291,-0.200592
13285,154094.4,299.15,298.292,-0.160267
13297,154233.6,299.151,298.294,-0.124747
13309,154372.8,299.15,298.296,-0.092316
13321,154512,299.15,298.297,-0.05714
13333,154651.2,299.15,298.299,-0.023165
13345,154790.4,299.151,298.3,0.006864
13357,154929.6,299.151,298.301,0.038436
13369,155068.8,299.151,298.303,0.06795
13381,155208,299.15,298.304,0.096605
13393,155347.2,299.15,298.305,0.122515
13405,155486.4,299.149,298.305,0.146366
13417,155625.6,299.15,298.307,0.171247
13429,155764.8,299.15,298.307,0.195269
13441,155904,299.149,298.309,0.213972
13453,156043.2,299.15,298.31,0.235592
13465,156182.4,299.151,298.31,0.253781
13477,156321.6,299.151,298.311,0.273857
13489,156460.8,299.151,298.312,0.292903
13501,156600,299.15,298.312,0.308689
13513,156739.2,299.15,298.312,0.322073
13525,156878.4,299.15,298.313,0.342663
13537,157017.6,299.151,298.313,0.363768
13549,157156.8,299.149,298.314,0.387276
13561,157296,299.148,298.3142,0.412842
13573,157435.2,299.15,298.315,0.434977
13585,157574.4,299.15,298.315,0.466378
13597,157713.6,299.15,298.315,0.493317
13609,157852.8,299.15,298.316,0.508073
13621,157992,299.15,298.316,0.524889
13633,158131.2,299.151,298.317,0.537758
13645,158270.4,299.149,298.316,0.545479
13657,158409.6,299.15,298.317,0.552514
13669,158548.8,299.15,298.317,0.561437
13681,158688,299.149,298.318,0.564525
13693,158827.2,299.149,298.318,0.568814
13705,158966.4,299.149,298.318,0.576707
13717,159105.6,299.1505,298.318,0.583399
13729,159244.8,299.15,298.319,0.586316
13741,159384,299.15,298.319,0.591292
13753,159523.2,299.15,298.319,0.594209
13765,159662.4,299.15,298.319,0.600558
13777,159801.6,299.15,298.319,0.604676
13789,159940.8,299.149,298.32,0.607078
13801,160080,299.15,298.32,0.609652
13813,160219.2,299.149,298.319,0.612912
13825,160358.4,299.149,298.32,0.614113
13837,160497.6,299.149,298.32,0.61703
13849,160636.8,299.15,298.32,0.617545
13861,160776,299.15,298.32,0.61926
13873,160915.2,299.151,298.3198,0.620461
13885,161054.4,299.151,298.321,0.617029
13897,161193.6,299.151,298.321,0.618745
13909,161332.8,299.151,298.321,0.614112
13921,161472,299.151,298.32,0.61274
13933,161611.2,299.149,298.321,0.612911
13945,161750.4,299.149,298.321,0.617715
13957,161889.6,299.15,298.321,0.616857
13969,162028.8,299.151,298.321,0.610508
13981,162168,299.151,298.322,0.605189
13993,162307.2,299.151,298.321,0.610508
14005,162446.4,299.151,298.321,0.609651
14017,162585.6,299.151,298.322,0.616857
14029,162724.8,299.15,298.322,0.628182
14041,162864,299.15,298.322,0.634359
14053,163003.2,299.15,298.321,0.644826
14065,163142.4,299.15,298.321,0.646542
14077,163281.6,299.15,298.321,0.650317
14089,163420.8,299.149,298.321,0.652376
14101,163560,299.149,298.322,0.658381
14113,163699.2,299.15,298.321,0.659754
14125,163838.4,299.15,298.322,0.665073
14137,163977.6,299.149,298.322,0.661469
14149,164116.8,299.15,298.322,0.66473
14161,164256,299.15,298.322,0.665931
14173,164395.2,299.15,298.322,0.664558
14185,164534.4,299.15,298.322,0.664901
14197,164673.6,299.15,298.322,0.663357
14209,164812.8,299.15,298.323,0.662499
14221,164952,299.15,298.322,0.664215
14233,165091.2,299.15,298.3217,0.668676
14245,165230.4,299.151,298.322,0.669877
14257,165369.6,299.15,298.322,0.67228
14269,165508.8,299.15,298.323,0.673995
14281,165648,299.151,298.323,0.672279
14293,165787.2,299.15,298.323,0.667303
14305,165926.4,299.151,298.322,0.669019
14317,166065.6,299.151,298.322,0.669362
14329,166204.8,299.15,298.322,0.668848
14341,166344,299.149,298.323,0.670735
14353,166483.2,299.15,298.323,0.672279
14365,166622.4,299.15,298.322,0.674167
14377,166761.6,299.15,298.322,0.679314
14389,166900.8,299.15,298.322,0.679314
14401,167040,299.151,298.322,0.680001
14413,167179.2,299.151,298.322,0.680001
14425,167318.4,299.151,298.323,0.681716
14437,167457.6,299.15,298.323,0.678628
14449,167596.8,299.15,298.323,0.677598
14461,167736,299.149,298.323,0.678284
14473,167875.2,299.15,298.323,0.682059
14485,168014.4,299.149,298.323,0.684976
14497,168153.6,299.149,298.323,0.683775
14509,168292.8,299.15,298.323,0.686864
14521,168432,299.15,298.323,0.685662
14533,168571.2,299.15,298.323,0.687721
14545,168710.4,299.15,298.323,0.687207
14557,168849.6,299.15,298.323,0.690295
14569,168988.8,299.151,298.323,0.686349
14581,169128,299.15,298.323,0.68755
14593,169267.2,299.149,298.323,0.693727
14605,169406.4,299.148,298.323,0.698532
14617,169545.6,299.149,298.322,0.694757
14629,169684.8,299.149,298.322,0.699047
14641,169824,299.15,298.323,0.706253
14653,169963.2,299.149,298.323,0.704022
14665,170102.4,299.148,298.323,0.703508
14677,170241.6,299.148,298.322,0.713632
14689,170380.8,299.147,298.322,0.708141
14701,170520,299.148,298.322,0.713804
14713,170659.2,299.148,298.322,0.720153
14725,170798.4,299.149,298.321,0.728904
14737,170937.6,299.149,298.321,0.727703
14749,171076.8,299.15,298.321,0.728389
14761,171216,299.15,298.321,0.734909
14773,171355.2,299.15,298.321,0.728561
14785,171494.4,299.151,298.32,0.723414
14797,171633.6,299.152,298.32,0.724958
14809,171772.8,299.15,298.32,0.718609
14821,171912,299.15,298.321,0.714834
14833,172051.2,299.15,298.32,0.720669
14845,172190.4,299.149,298.32,0.716036
14857,172329.6,299.148,298.32,0.716036
14869,172468.8,299.147,298.32,0.728905
14881,172608,299.149,298.32,0.726846
14893,172747.2,299.148,298.319,0.738171
14897,172793.6,299.148,298.319,0.741775