File: i_data/0.10Kmin/old_wt%/H2O-NH3_1.62wt%.csv
H2O-NH3 1.76wt% Specific Heat - Large HF,,,,
Creation Date : 9/1/2022 9:36:12 AM,,,,
User : admin,,,,
,,,,
HeatFlow :,,,,
 Initial Mass : 4887.3 mg,,,,
 Molar Mass : 17 g/mol,,,,
,,,,
Index,Time(s),Furnace Temperature(K),Sample Temperature(K),HeatFlow(mW)
1,0,300.039,300.077,88.7945
13,202.8,300.036,300.078,46.9465
25,405.6,300.035,300.077,24.71371
37,608.4,300.03,300.075,12.9449
49,811.2,300.022,300.072,6.727206
61,1014,300.003,300.07,3.47016
73,1216.8,299.962,300.064,1.80258
85,1419.6,299.885,300.055,1.028146
97,1622.4,299.753,300.038,0.818488
109,1825.2,299.542,300.008,1.056972
121,2028,299.218,299.96,1.74297
133,2230.8,298.728,299.884,2.956274
145,2433.6,298.02,299.765,4.864741
157,2636.4,297.075,299.588,7.772125
169,2839.2,295.907,299.339,11.9341
181,3042,294.564,299.006,17.4488
193,3244.8,293.102,298.586,24.2051
205,3447.6,291.571,298.076,31.9477
217,3650.4,289.992,297.481,40.299
229,3853.2,288.394,296.804,48.9268
241,4056,286.787,296.05,57.5181
253,4258.8,285.182,295.229,65.8662
265,4461.6,283.591,294.347,73.7858
277,4664.4,282.017,293.41,81.1008
289,4867.2,280.466,292.433,87.61316
301,5070,278.944,291.413,93.3018
313,5272.8,277.449,290.35,98.6155
325,5475.6,275.981,289.251,103.524
337,5678.4,274.542,288.123,107.905
349,5881.2,273.127,286.974,111.701
361,6084,271.738,285.806,114.9322
373,6286.8,270.369,284.623,117.641
385,6489.6,269.022,283.428,119.892
397,6692.4,267.693,282.223,121.733
409,6895.2,266.379,281.013,123.257
421,7098,265.077,279.796,124.499
433,7300.8,263.783,278.576,125.583
445,7503.6,262.503,277.353,126.426
457,7706.4,261.237,276.129,127.032
469,7909.2,259.984,274.906,127.558
481,8112,258.747,273.682,127.897
493,8314.8,257.524,272.462,128.183
505,8517.6,256.319,271.245,128.392
517,8720.4,255.129,270.032,128.615
529,8923.2,253.959,268.825,128.646
541,9126,252.813,267.625,128.351
553,9328.8,251.683,266.432,127.878
565,9531.6,250.556,265.248,127.524
577,9734.4,249.43,264.07,126.799
589,9937.2,248.308,262.899,126.288
601,10140,247.199,261.735,125.947
613,10342.8,246.11,260.578,125.404
625,10545.6,245.038,259.441,1320.76
637,10748.4,243.976,258.354,1529.85
649,10951.2,242.92,257.267,1483.85
661,11154,241.872,256.178,1228.85
673,11356.8,240.833,255.083,824.342
685,11559.6,239.811,253.982,508.786
697,11762.4,238.807,252.881,319.236
709,11965.2,237.82,251.789,213.456
721,12168,236.841,250.704,155.39
733,12370.8,235.861,249.628,122.89
745,12573.6,234.885,248.561,104.074
757,12776.4,233.917,247.503,93.28
769,12979.2,232.962,246.455,86.3977
781,13182,232.013,245.417,81.1921
793,13384.8,231.069,244.386,77.2866
805,13587.6,230.133,243.365,74.1887
817,13790.4,229.209,242.353,71.3446
829,13993.2,228.295,241.35,68.7676
841,14196,227.382,240.355,66.7582
853,14398.8,226.464,239.368,65.3139
865,14601.6,225.546,238.388,63.5964
877,14804.4,224.634,237.415,61.91971
889,15007.2,223.735,236.449,60.68451
901,15210,222.85,235.49,59.38749
913,15412.8,221.97,234.538,57.9922
925,15615.6,221.09,233.594,56.8929
937,15818.4,220.214,232.656,55.5929
949,16021.2,219.345,231.725,54.5806
961,16224,218.488,230.801,53.8969
973,16426.8,217.644,229.884,52.6253
985,16629.6,216.812,228.974,51.9038
997,16832.4,215.982,228.072,50.9902
1009,17035.2,215.158,227.177,49.9225
1021,17238,214.343,226.289,49.0902
1033,17440.8,213.534,225.407,48.1199
1045,17643.6,212.728,224.534,47.2674
1057,17846.4,211.932,223.666,46.4396
1069,18049.2,211.144,222.806,45.57514
1081,18252,210.359,221.953,45.3012
1093,18454.8,209.579,221.105,44.8604
1105,18657.6,208.81,220.266,44.10874
1117,18860.4,208.045,219.433,43.59201
1129,19063.2,207.286,218.605,43.3275
1141,19266,206.536,217.785,42.5494
1153,19468.8,205.793,216.971,42.1496
1165,19671.6,205.057,216.164,40.9008
1177,19874.4,204.331,215.365,40.0846
1189,20077.2,203.608,214.572,39.2329
1201,20280,202.883,213.784,38.6556
1213,20482.8,202.161,213.002,38.4109
1225,20685.6,201.449,212.225,38.1352
1237,20888.4,200.743,211.455,37.8222
1249,21091.2,200.039,210.691,37.2109
1261,21294,199.339,209.931,36.8044
1273,21496.8,198.647,209.178,36.3611
1285,21699.6,197.958,208.431,35.9346
1297,21902.4,197.272,207.688,35.20704
1309,22105.2,196.596,206.951,34.6695
1321,22308,195.924,206.219,33.926
1333,22510.8,195.252,205.493,33.7446
1345,22713.6,194.587,204.773,33.4789
1357,22916.4,193.926,204.057,32.8248
1369,23119.2,193.264,203.345,32.8565
1381,23322,192.604,202.639,32.63296
1393,23524.8,191.955,201.937,32.1645
1405,23727.6,191.323,201.239,31.8021
1417,23930.4,190.7,200.548,31.2341
1429,24133.2,190.076,199.863,30.7699
1441,24336,189.447,199.182,30.4705
1453,24538.8,188.815,198.507,30.2239
1465,24741.6,188.19,197.834,29.648
1477,24944.4,187.575,197.166,29.0918
1489,25147.2,186.966,196.504,29.0329
1501,25350,186.353,195.845,28.303
1513,25552.8,185.74,195.191,27.6629
1525,25755.6,185.13,194.54,27.3599
1537,25958.4,184.532,193.893,26.8737
1549,26161.2,183.946,193.251,26.4943
1561,26364,183.365,192.613,26.3597
1573,26566.8,182.781,191.981,26.9099
1585,26769.6,182.195,191.352,26.5159
1597,26972.4,181.613,190.726,25.99417
1609,27175.2,181.039,190.106,25.487
1621,27378,180.477,189.489,25.2215
1633,27580.8,179.923,188.877,24.6141
1645,27783.6,179.368,188.27,24.2341
1657,27986.4,178.816,187.667,23.8633
1669,28189.2,178.271,187.068,23.2852
1681,28392,177.735,186.475,23.0097
1693,28594.8,177.198,185.885,23.23071
1705,28797.6,176.661,185.3,23.8206
1717,29000.4,176.131,184.718,23.46005
1729,29203.2,175.615,184.141,23.02486
1741,29406,175.106,183.569,22.3107
1753,29608.8,174.598,183.003,22.2951
1765,29811.6,174.093,182.44,22.4269
1777,30014.4,173.592,181.883,21.7291
1789,30217.2,173.086,181.329,21.8899
1801,30420,172.58,180.778,21.3242
1813,30622.8,172.081,180.233,21.3966
1825,30825.6,171.586,179.69,20.9286
1837,31028.4,171.088,179.152,20.1201
1849,31231.2,170.59,178.616,20.0125
1861,31434,170.1,178.084,20.262
1873,31636.8,169.624,177.555,19.9274
1885,31839.6,169.159,177.031,19.8448
1897,32042.4,168.706,176.512,19.4163
1909,32245.2,168.259,175.998,19.3695
1921,32448,167.817,175.489,18.97615
1933,32650.8,167.381,174.985,18.859
1945,32853.6,166.949,174.486,18.5381
1957,33056.4,166.519,173.992,18.2617
1969,33259.2,166.093,173.503,18.0669
1981,33462,165.669,173.018,17.7123
1993,33664.8,165.249,172.538,17.30038
2005,33867.6,164.832,172.062,17.3167
2017,34070.4,164.416,171.59,17.5595
2029,34273.2,164.004,171.123,17.2438
2041,34476,163.594,170.66,17.0492
2053,34678.8,163.186,170.2,16.8979
2065,34881.6,162.78,169.744,16.1227
2077,35084.4,162.375,169.292,15.9798
2089,35287.2,161.973,168.843,16.7016
2101,35490,161.573,168.399,15.9671
2113,35692.8,161.172,167.957,15.8778
2125,35895.6,160.772,167.518,15.7204
2137,36098.4,160.372,167.081,15.6474
2149,36301.2,159.974,166.648,15.6111
2161,36504,159.577,166.217,15.47948
2173,36706.8,159.183,165.789,15.5985
2185,36909.6,158.79,165.364,15.3574
2197,37112.4,158.399,164.94,14.98
2209,37315.2,158.012,164.521,15.1311
2221,37518,157.628,164.101,14.7247
2233,37720.8,157.247,163.687,14.5533
2245,37923.6,156.87,163.274,14.7698
2257,38126.4,156.494,162.863,14.4134
2269,38329.2,156.12,162.456,14.4065
2281,38532,155.747,162.05,14.1132
2293,38734.8,155.375,161.647,13.8705
2305,38937.6,155.006,161.248,13.5257
2317,39140.4,154.638,160.849,13.3944
2329,39343.2,154.273,160.453,13.5636
2341,39546,153.908,160.059,13.6196
2353,39748.8,153.544,159.667,13.703
2365,39951.6,153.18,159.279,13.445
2377,40154.4,152.811,158.89,13.1695
2389,40357.2,152.433,158.504,13.003
2401,40560,152.045,158.118,12.8882
2413,40762.8,151.649,157.731,12.78
2425,40965.6,151.242,157.344,12.68345
2437,41168.4,150.831,156.955,12.8683
2449,41371.2,150.426,156.565,12.734
2461,41574,150.039,156.177,12.9768
2473,41776.8,149.663,155.788,13.38937
2485,41979.6,149.294,155.401,13.2424
2497,42182.4,148.931,155.015,13.1537
2509,42385.2,148.565,154.631,13.09263
2521,42588,148.192,154.248,12.8698
2533,42790.8,147.809,153.865,12.82232
2545,42993.6,147.413,153.482,12.719
2557,43196.4,147.016,153.099,12.7481
2569,43399.2,146.627,152.716,12.8618
2581,43602,146.256,152.331,12.7089
2593,43804.8,145.903,151.95,12.5503
2605,44007.6,145.555,151.571,12.62874
2617,44210.4,145.202,151.193,12.3055
2629,44413.2,144.854,150.817,12.1912
2641,44616,144.517,150.444,12.3382
2653,44818.8,144.183,150.073,12.13019
2665,45021.6,143.838,149.705,12.23752
2677,45224.4,143.488,149.337,12.1556
2689,45427.2,143.147,148.972,12.0638
2701,45630,142.819,148.608,11.8285
2713,45832.8,142.496,148.247,11.7367
2725,46035.6,142.163,147.888,11.7154
2737,46238.4,141.827,147.531,11.5775
2749,46441.2,141.5,147.175,11.4545
2761,46644,141.187,146.823,11.3861
2773,46846.8,140.891,146.473,11.2474
2785,47049.6,140.595,146.126,11.2561
2797,47252.4,140.287,145.783,11.1889
2809,47455.2,139.97,145.442,10.954
2821,47658,139.655,145.102,10.8568
2833,47860.8,139.354,144.765,10.68
2845,48063.6,139.063,144.429,10.7121
2857,48266.4,138.765,144.097,10.9187
2869,48469.2,138.463,143.768,10.6425
2881,48672,138.1668,143.44,10.3278
2893,48874.8,137.882,143.114,10.39652
2905,49077.6,137.606,142.792,10.1649
2917,49280.4,137.322,142.472,10.0727
2929,49483.2,137.031,142.154,10.05495
2941,49686,136.733,141.838,9.974183
2953,49888.8,136.425,141.522,9.874201
2965,50091.6,136.1117,141.206,9.811103
2977,50294.4,135.805,140.892,9.807691
2989,50497.2,135.514,140.579,9.81786
3001,50700,135.239,140.268,9.782601
3013,50902.8,134.965,139.96,9.763405
3025,51105.6,134.687,139.652,9.601309
3037,51308.4,134.414,139.347,9.45154
3049,51511.2,134.152,139.044,9.297573
3061,51714,133.903,138.745,9.224613
3073,51916.8,133.648,138.448,9.225275
3085,52119.6,133.381,138.154,9.117887
3097,52322.4,133.117,137.862,8.910552
3109,52525.2,132.86,137.572,8.830675
3121,52728,132.616,137.284,8.966881
3133,52930.8,132.372,136.999,8.617722
3145,53133.6,132.122,136.717,8.591387
3157,53336.4,131.869,136.436,8.511754
3169,53539.2,131.608,136.157,8.56892
3181,53742,131.335,135.878,8.486075
3193,53944.8,131.06,135.6,8.283181
3205,54147.6,130.796,135.322,8.32146
3217,54350.4,130.55,135.046,8.378092
3229,54553.2,130.316,134.773,8.175269
3241,54756,130.081,134.501,8.087231
3253,54958.8,129.836,134.232,8.154683
3265,55161.6,129.581,133.964,7.989941
3277,55364.4,129.317,133.697,7.915248
3289,55567.2,129.047,133.43,8.046413
3301,55770,128.775,133.162,7.726168
3313,55972.8,128.506,132.894,7.695669
3325,56175.6,128.236,132.627,7.631185
3337,56378.4,127.971,132.359,7.569256
3349,56581.2,127.712,132.091,7.608249
3361,56784,127.455,131.825,7.604666
3373,56986.8,127.201,131.559,7.583459
3385,57189.6,126.957,131.294,7.554875
3397,57392.4,126.729,131.032,7.638664
3409,57595.2,126.523,130.771,7.49092
3421,57798,126.322,130.515,7.412767
3433,58000.8,126.109,130.262,7.20514
3445,58203.6,125.884,130.011,7.054916
3457,58406.4,125.657,129.761,7.160562
3469,58609.2,125.442,129.513,7.173378
3481,58812,125.246,129.267,7.032157
3493,59014.8,125.064,129.025,6.973265
3505,59217.6,124.881,128.787,6.877507
3517,59420.4,124.692,128.553,6.681193
3529,59623.2,124.506,128.321,6.544591
3541,59826,124.33,128.092,6.408052
3553,60028.8,124.157,127.867,6.244228
3565,60231.6,123.969,127.644,6.220698
3577,60434.4,123.769,127.423,6.06712
3589,60637.2,123.562,127.203,5.935592
3601,60840,123.362,126.984,5.965057
3613,61042.8,123.178,126.767,5.890267
3625,61245.6,123.006,126.553,5.750293
3637,61448.4,122.828,126.34,5.725072
3649,61651.2,122.641,126.13,5.682125
3661,61854,122.453,125.921,5.655511
3673,62056.8,122.274,125.714,5.535291
3685,62259.6,122.107,125.509,5.477214
3697,62462.4,121.935,125.305,5.384139
3709,62665.2,121.747,125.104,5.355404
3721,62868,121.547,124.903,5.36878
3733,63070.8,121.349,124.702,5.267271
3745,63273.6,121.162,124.501,5.213756
3757,63476.4,120.99,124.302,5.271856
3769,63679.2,120.823,124.104,5.23819
3781,63882,120.651,123.909,5.213986
3793,64084.8,120.471,123.715,5.130204
3805,64287.6,120.285,123.52,5.096452
3817,64490.4,120.104,123.328,5.092367
3829,64693.2,119.936,123.135,5.010643
3841,64896,119.775,122.945,4.951439
3853,65098.8,119.605,122.756,4.889768
3865,65301.6,119.427,122.569,4.862733
3877,65504.4,119.251,122.381,4.877677
3889,65707.2,119.088,122.196,4.802167
3901,65910,118.943,122.011,4.79978
3913,66112.8,118.804,121.83,4.709545
3925,66315.6,118.655,121.651,4.628806
3937,66518.4,118.499,121.473,4.601026
3949,66721.2,118.343,121.297,4.52048
3961,66924,118.197,121.122,4.477743
3973,67126.8,118.06,120.949,4.425642
3985,67329.6,117.916,120.779,4.376528
3997,67532.4,117.761,120.61,4.35675
4009,67735.2,117.606,120.441,4.250973
4021,67938,117.456,120.273,4.21709
4033,68140.8,117.3,120.107,4.209781
4045,68343.6,117.137,119.94,4.16994
4057,68546.4,116.972,119.774,4.138723
4069,68749.2,116.816,119.609,4.124593
4081,68952,116.672,119.443,4.106937
4093,69154.8,116.524,119.28,4.064394
4105,69357.6,116.363,119.118,4.018555
4117,69560.4,116.192,118.954,4.018506
4129,69763.2,116.022,118.79,3.998006
4141,69966,115.866,118.627,3.978043
4153,70168.8,115.728,118.464,3.955667
4165,70371.6,115.602,118.303,3.966059
4177,70574.4,115.467,118.144,3.930318
4189,70777.2,115.319,117.987,3.902993
4201,70980,115.167,117.829,3.932131
4213,71182.8,115.022,117.672,3.86171
4225,71385.6,114.891,117.517,3.798786
4237,71588.4,114.77,117.362,3.766426
4249,71791.2,114.647,117.21,3.734807
4261,71994,114.521,117.06,3.701901
4273,72196.8,114.395,116.911,3.605223
4285,72399.6,114.263,116.763,3.529068
4297,72602.4,114.123,116.617,3.527233
4309,72805.2,113.982,116.471,3.506984
4321,73008,113.848,116.3245,3.479549
4333,73210.8,113.728,116.18,3.504707
4345,73413.6,113.612,116.037,3.455697
4357,73616.4,113.483,115.895,3.420294
4369,73819.2,113.343,115.754,3.379422
4381,74022,113.205,115.612,3.37195
4393,74224.8,113.078,115.471,3.330951
4405,74427.6,112.966,115.332,3.34493
4417,74630.4,112.862,115.195,3.301345
4429,74833.2,112.748,115.059,3.270564
4441,75036,112.624,114.924,3.211469
4453,75238.8,112.499,114.79,3.185601
4465,75441.6,112.384,114.656,3.141954
4477,75644.4,112.283,114.525,3.301102
4489,75847.2,112.186,114.395,3.150089
4501,76050,112.076,114.267,3.063014
4513,76252.8,111.952,114.14,3.032837
4525,76455.6,111.824,114.011,2.992352
4537,76658.4,111.702,113.884,2.988066
4549,76861.2,111.593,113.758,2.972864
4561,77064,111.495,113.633,2.912763
4573,77266.8,111.398,113.51,2.874963
4585,77469.6,111.302,113.388,2.840114
4597,77672.4,111.196,113.268,2.805161
4609,77875.2,111.069,113.147,2.768025
4621,78078,110.924,113.027,2.766443
4633,78280.8,110.775,112.903,2.784416
4645,78483.6,110.635,112.779,2.802725
4657,78686.4,110.514,112.654,2.830854
4669,78889.2,110.414,112.53,2.842825
4681,79092,110.322,112.408,2.823602
4693,79294.8,110.224,112.288,2.798195
4705,79497.6,110.121,112.169,2.743642
4717,79700.4,110.021,112.051,2.697563
4729,79903.2,109.932,111.934,2.677447
4741,80106,109.856,111.819,2.62287
4753,80308.8,109.783,111.707,2.577074
4765,80511.6,109.703,111.597,2.515172
4777,80714.4,109.606,111.488,2.46239
4789,80917.2,109.499,111.38,2.447702
4801,81120,109.394,111.272,2.413868
4813,81322.8,109.299,111.164,2.386157
4825,81525.6,109.22,111.058,2.363313
4837,81728.4,109.1482,110.953,2.311673
4849,81931.2,109.069,110.851,2.267032
4861,82134,108.979,110.749,2.240574
4873,82336.8,108.887,110.649,2.20754
4885,82539.6,108.805,110.549,2.198323
4897,82742.4,108.732,110.45,2.158055
4909,82945.2,108.658,110.353,2.102204
4921,83148,108.578,110.258,2.06984
4933,83350.8,108.492,110.162,2.061352
4945,83553.6,108.403,110.068,2.051284
4957,83756.4,108.312,109.973,2.027521
4969,83959.2,108.215,109.879,2.005274
4981,84162,108.117,109.784,1.983305
4993,84364.8,108.017,109.69,1.974723
5005,84567.6,107.914,109.594,1.98548
5017,84770.4,107.814,109.498,1.996885
5029,84973.2,107.724,109.403,2.008296
5041,85176,107.652,109.309,1.981571
5053,85378.8,107.599,109.215,1.959174
5065,85581.6,107.556,109.125,1.926359
5077,85784.4,107.508,109.039,1.864325
5089,85987.2,107.45,108.954,1.792784
5101,86190,107.389,108.869,1.738082
5113,86392.8,107.336,108.788,1.683586
5125,86595.6,107.297,108.708,1.621157
5137,86798.4,107.267,108.631,1.559246
5149,87001.2,107.238,108.557,1.488426
5161,87204,107.207,108.486,1.413098
5173,87406.8,107.177,108.417,1.358121
5185,87609.6,107.154,108.351,1.275351
5197,87812.4,107.135,108.287,1.204759
5209,88015.2,107.119,108.226,1.146055
5221,88218,107.102,108.168,1.065832
5233,88420.8,107.089,108.113,0.981101
5245,88623.6,107.069,108.061,0.90859
5257,88826.4,107.03,108.009,0.85054
5269,89029.2,106.972,107.957,0.824976
5281,89232,106.905,107.906,0.82024
5293,89434.8,106.839,107.852,0.822472
5305,89637.6,106.781,107.798,0.833873
5317,89840.4,106.736,107.745,0.835162
5329,90043.2,106.705,107.692,0.82315
5341,90246,106.675,107.641,0.801943
5353,90448.8,106.642,107.591,0.791163
5365,90651.6,106.61,107.542,0.757556
5377,90854.4,106.586,107.495,0.732792
5389,91057.2,106.557,107.448,0.698177
5401,91260,106.511,107.402,0.667971
5413,91462.8,106.455,107.356,0.657738
5425,91665.6,106.395,107.309,0.658927
5437,91868.4,106.343,107.262,0.678849
5449,92071.2,106.307,107.214,0.683542
5461,92274,106.289,107.168,0.67012
5473,92476.8,106.276,107.124,0.631885
5485,92679.6,106.261,107.082,0.586942
5497,92882.4,106.248,107.042,0.55309
5509,93085.2,106.234,107.003,0.51635
5521,93288,106.2078,106.965,0.465899
5533,93490.8,106.174,106.928,0.444069
5545,93693.6,106.141,106.891,0.424134
5557,93896.4,106.126,106.854,0.416292
5569,94099.2,106.124,106.819,0.375304
5581,94302,106.124,106.788,0.34289
5593,94504.8,106.12,106.757,0.290379
5605,94707.6,106.119,106.728,0.254737
5617,94910.4,106.113,106.7,0.209189
5629,95113.2,106.1,106.674,0.17032
5641,95316,106.083,106.648,0.137176
5653,95518.8,106.069,106.623,0.108167
5665,95721.6,106.057,106.599,0.093506
5677,95924.4,106.049,106.576,0.066073
5689,96127.2,106.042,106.553,0.056188
5701,96330,106.033,106.532,0.028098
5713,96532.8,106.025,106.511,-0.001277
5725,96735.6,106.024,106.491,-0.004791
5737,96938.4,106.023,106.472,-0.035459
5749,97141.2,106.023,106.455,-0.059425
5761,97344,106.024,106.439,-0.093623
5773,97546.8,106.027,106.423,-0.122076
5785,97749.6,106.028,106.408,-0.147338
5797,97952.4,106.033,106.396,-0.186668
5809,98155.2,106.036,106.384,-0.203628
5821,98358,106.04,106.372,-0.233697
5833,98560.8,106.045,106.3617,-0.253219
5845,98763.6,106.047,106.352,-0.289689
5857,98966.4,106.049,106.343,-0.307616
5869,99169.2,106.053,106.336,-0.317867
5881,99372,106.058,106.328,-0.351785
5893,99574.8,106.064,106.321,-0.355001
5905,99777.6,106.069,106.316,-0.375806
5917,99980.4,106.069,106.31,-0.413883
5929,100183.2,106.071,106.305,-0.408781
5941,100386,106.073,106.301,-0.417752
5953,100588.8,106.078,106.297,-0.443674
5965,100791.6,106.085,106.293,-0.442729
5977,100994.4,106.088,106.29,-0.461932
5989,101197.2,106.087,106.288,-0.478574
6001,101400,106.087,106.285,-0.475387
6013,101602.8,106.088,106.283,-0.493311
6025,101805.6,106.09,106.281,-0.486919
6037,102008.4,106.094,106.279,-0.499405
6049,102211.2,106.098,106.277,-0.50517
6061,102414,106.102,106.276,-0.509653
6073,102616.8,106.109,106.275,-0.521173
6085,102819.6,106.117,106.275,-0.536852
6097,103022.4,106.123,106.275,-0.559567
6109,103225.2,106.124,106.275,-0.567564
6121,103428,106.118,106.276,-0.568202
6133,103630.8,106.108,106.276,-0.556684
6145,103833.6,106.085,106.274,-0.545493
6157,104036.4,106.05,106.271,-0.521832
6169,104239.2,106.295,106.269,-0.535915
6181,104442,106.862,106.29,-0.766158
6193,104644.8,107.403,106.339,-1.237533
6205,104847.6,107.833,106.415,-1.818146
6217,105050.4,108.192,106.508,-2.383068
6229,105253.2,108.521,106.616,-2.86897
6241,105456,108.848,106.737,-3.271486
6253,105658.8,109.18,106.868,-3.630622
6265,105861.6,109.509,107.01,-3.944158
6277,106064.4,109.84,107.161,-4.22527
6289,106267.2,110.183,107.32,-4.480381
6301,106470,110.535,107.488,-4.728824
6313,106672.8,110.881,107.667,-4.985136
6325,106875.6,111.226,107.854,-5.231229
6337,107078.4,111.571,108.05,-5.471556
6349,107281.2,111.909,108.253,-5.704548
6361,107484,112.244,108.464,-5.924219
6373,107686.8,112.591,108.682,-6.124328
6385,107889.6,112.943,108.909,-6.340049
6397,108092.4,113.293,109.142,-6.551571
6409,108295.2,113.641,109.383,-6.757624
6421,108498,113.986,109.63,-6.950778
6433,108700.8,114.328,109.883,-7.1373
6445,108903.6,114.667,110.142,-7.297044
6457,109106.4,114.999,110.406,-7.463389
6469,109309.2,115.333,110.674,-7.617425
6481,109512,115.672,110.947,-7.748064
6493,109714.8,116.013,111.2237,-7.873028
6505,109917.6,116.355,111.506,-8.000912
6517,110120.4,116.699,111.792,-8.133296
6529,110323.2,117.04,112.082,-8.273183
6541,110526,117.383,112.376,-8.403675
6553,110728.8,117.723,112.674,-8.531308
6565,110931.6,118.059,112.976,-8.655469
6577,111134.4,118.396,113.281,-8.758245
6589,111337.2,118.733,113.589,-8.860747
6601,111540,119.068,113.899,-8.965715
6613,111742.8,119.402,114.213,-9.054019
6625,111945.6,119.738,114.528,-9.139461
6637,112148.4,120.072,114.845,-9.222665
6649,112351.2,120.408,115.164,-9.29676
6661,112554,120.743,115.483,-9.36838
6673,112756.8,121.08,115.805,-9.442898
6685,112959.6,121.417,116.127,-9.503358
6697,113162.4,121.755,116.45,-9.554618
6709,113365.2,122.093,116.774,-9.614277
6721,113568,122.431,117.098,-9.682208
6733,113770.8,122.769,117.425,-9.750057
6745,113973.6,123.105,117.752,-9.819376
6757,114176.4,123.444,118.079,-9.884297
6769,114379.2,123.781,118.407,-9.952435
6781,114582,124.117,118.736,-10.0232
6793,114784.8,124.452,119.064,-10.1004
6805,114987.6,124.787,119.393,-10.1744
6817,115190.4,125.126,119.723,-10.2504
6829,115393.2,125.465,120.052,-10.3287
6841,115596,125.806,120.382,-10.4108
6853,115798.8,126.147,120.714,-10.495
6865,116001.6,126.48,121.045,-10.5686
6877,116204.4,126.813,121.377,-10.6082
6889,116407.2,127.148,121.708,-10.6336
6901,116610,127.49,122.039,-10.637
6913,116812.8,127.834,122.37,-10.62
6925,117015.6,128.175,122.702,-10.6031
6937,117218.4,128.5073,123.035,-10.5977
6949,117421.2,128.84,123.367,-10.5991
6961,117624,129.179,123.7,-10.5873
6973,117826.8,129.522,124.033,-10.5956
6985,118029.6,129.862,124.365,-10.6135
6997,118232.4,130.197,124.698,-10.6218
7009,118435.2,130.534,125.031,-10.6344
7021,118638,130.877,125.364,-10.6606
7033,118840.8,131.222,125.698,-10.6859
7045,119043.6,131.559,126.034,-10.69843
7057,119246.4,131.894,126.368,-10.7247
7069,119449.2,132.227,126.704,-10.7464
7081,119652,132.557,127.038,-10.7642
7093,119854.8,132.888,127.371,-10.7627
7105,120057.6,133.225,127.704,-10.75513
7117,120260.4,133.57,128.037,-10.7551
7129,120463.2,133.917,128.37,-10.7768
7141,120666,134.266,128.705,-10.8091
7153,120868.8,134.602,129.039,-10.8266
7165,121071.6,134.929,129.375,-10.848
7177,121274.4,135.259,129.709,-10.8632
7189,121477.2,135.594,130.043,-10.8637
7201,121680,135.932,130.3758,-10.8692
7213,121882.8,136.271,130.708,-10.86439
7225,122085.6,136.609,131.042,-10.8698
7237,122288.4,136.948,131.374,-10.8879
7249,122491.2,137.29,131.707,-10.907
7261,122694,137.629,132.039,-10.9239
7273,122896.8,137.967,132.373,-10.932
7285,123099.6,138.307,132.707,-10.9504
7297,123302.4,138.651,133.04,-10.9765
7309,123505.2,138.993,133.375,-11.0055
7321,123708,139.325,133.71,-11.0368
7333,123910.8,139.658,134.044,-11.0472
7345,124113.6,139.997,134.378,-11.0614
7357,124316.4,140.338,134.712,-11.071
7369,124519.2,140.682,135.046,-11.0977
7381,124722,141.024,135.382,-11.1225
7393,124924.8,141.358,135.719,-11.1583
7405,125127.6,141.691,136.055,-11.1733
7417,125330.4,142.03,136.39,-11.1873
7429,125533.2,142.37,136.726,-11.2027
7441,125736,142.704,137.062,-11.2355
7453,125938.8,143.038,137.397,-11.2452
7465,126141.6,143.375,137.733,-11.2478
7477,126344.4,143.719,138.068,-11.2719
7489,126547.2,144.06,138.404,-11.2904
7501,126750,144.393,138.741,-11.3106
7513,126952.8,144.727,139.076,-11.3231
7525,127155.6,145.066,139.412,-11.3431
7537,127358.4,145.403,139.747,-11.3551
7549,127561.2,145.736,140.081,-11.3671
7561,127764,146.074,140.416,-11.367
7573,127966.8,146.415,140.75,-11.3744
7585,128169.6,146.759,141.086,-11.39385
7597,128372.4,147.1,141.421,-11.4217
7609,128575.2,147.4383,141.758,-11.4417
7621,128778,147.776,142.094,-11.46
7633,128980.8,148.115,142.431,-11.4851
7645,129183.6,148.448,142.767,-11.5099
7657,129386.4,148.783,143.103,-11.52143
7669,129589.2,149.121,143.438,-11.5265
7681,129792,149.462,143.775,-11.5281
7693,129994.8,149.805,144.11,-11.539
7705,130197.6,150.148,144.447,-11.5591
7717,130400.4,150.48,144.785,-11.5731
7729,130603.2,150.812,145.122,-11.5685
7741,130806,151.149,145.459,-11.5566
7753,131008.8,151.493,145.796,-11.5386
7765,131211.6,151.837,146.133,-11.5202
7777,131414.4,152.174,146.471,-11.5073
7789,131617.2,152.502,146.808,-11.4888
7801,131820,152.835,147.144,-11.4378
7813,132022.8,153.175,147.481,-11.3623
7825,132225.6,153.516,147.818,-11.29031
7837,132428.4,153.859,148.155,-11.2134
7849,132631.2,154.198,148.493,-11.1226
7861,132834,154.532,148.83,-11.0151
7873,133036.8,154.868,149.167,-10.8633
7885,133239.6,155.204,149.504,-10.6951
7897,133442.4,155.54,149.841,-10.50084
7909,133645.2,155.882,150.178,-10.2672
7921,133848,156.225,150.515,-9.996751
7933,134050.8,156.568,150.852,-9.685539
7945,134253.6,156.905,151.191,-9.30926
7957,134456.4,157.236,151.529,-8.901523
7969,134659.2,157.572,151.866,-8.455627
7981,134862,157.913,152.204,-7.984791
7993,135064.8,158.255,152.542,-7.494078
8005,135267.6,158.596,152.88,-6.966292
8017,135470.4,158.934,153.219,-6.482745
8029,135673.2,159.271,153.557,-6.029037
8041,135876,159.607,153.897,-5.599374
8053,136078.8,159.942,154.236,-5.233273
8065,136281.6,160.278,154.575,-4.928722
8077,136484.4,160.619,154.913,-4.695091
8089,136687.2,160.963,155.253,-4.546396
8101,136890,161.299,155.592,-4.515874
8113,137092.8,161.632,155.931,-4.616375
8125,137295.6,161.965,156.269,-4.935741
8137,137498.4,162.299,156.607,-5.47206
8149,137701.2,162.636,156.945,-6.225569
8161,137904,162.978,157.283,-7.149149
8173,138106.8,163.321,157.621,-8.135134
8185,138309.6,163.662,157.96,-9.110206
8197,138512.4,164.002,158.298,-9.954534
8209,138715.2,164.339,158.637,-10.598
8221,138918,164.673,158.975,-11.0703
8233,139120.8,165.009,159.313,-11.3601
8245,139323.6,165.346,159.651,-11.5735
8257,139526.4,165.684,159.989,-11.6943
8269,139729.2,166.027,160.328,-11.8118
8281,139932,166.371,160.667,-11.88533
8293,140134.8,166.71,161.007,-11.9612
8305,140337.6,167.043,161.346,-12.02573
8317,140540.4,167.378,161.684,-12.0238
8329,140743.2,167.714,162.024,-12.0214
8341,140946,168.048,162.362,-11.9766
8353,141148.8,168.384,162.699,-12.0123
8365,141351.6,168.725,163.037,-12.0233
8377,141554.4,169.067,163.376,-12.0462
8389,141757.2,169.409,163.714,-12.0799
8401,141960,169.747,164.054,-12.1154
8413,142162.8,170.079,164.393,-12.0951
8425,142365.6,170.415,164.73,-12.1366
8437,142568.4,170.756,165.068,-12.1416
8449,142771.2,171.099,165.407,-12.0284
8461,142974,171.441,165.745,-12.1089
8473,143176.8,171.775,166.085,-12.2137
8485,143379.6,172.108,166.425,-12.245
8497,143582.4,172.447,166.763,-12.24884
8509,143785.2,172.787,167.102,-12.2074
8521,143988,173.128,167.442,-12.3062
8533,144190.8,173.464,167.78,-12.3169
8545,144393.6,173.797,168.119,-12.331
8557,144596.4,174.135,168.458,-12.3298
8569,144799.2,174.476,168.797,-12.3997
8581,145002,174.815,169.136,-12.4756
8593,145204.8,175.153,169.475,-12.6161
8605,145407.6,175.489,169.815,-12.7843
8617,145610.4,175.823,170.153,-13.2466
8629,145813.2,176.161,170.492,-14.7231
8641,146016,176.501,170.83,-18.5186
8653,146218.8,176.844,171.168,-22.6884
8665,146421.6,177.184,171.507,-26.10263
8677,146624.4,177.52,171.847,-18.0581
8689,146827.2,177.853,172.186,-5.655798
8701,147030,178.193,172.525,-2.285474
8713,147232.8,178.534,172.865,-3.542268
8725,147435.6,178.875,173.205,-6.429528
8737,147638.4,179.211,173.544,-9.092852
8749,147841.2,179.545,173.884,-10.8019
8761,148044,179.88,174.223,-11.814
8773,148246.8,180.22,174.562,-12.327
8785,148449.6,180.563,174.901,-12.6211
8797,148652.4,180.904,175.241,-12.88201
8809,148855.2,181.242,175.58,-13.3815
8821,149058,181.578,175.92,-16.2908
8833,149260.8,181.91,176.26,-36.0189
8845,149463.6,182.245,176.598,-36.1694
8857,149666.4,182.585,176.937,-41.4252
8869,149869.2,182.927,177.274,-65.683
8881,150072,183.268,177.613,-35.9805
8893,150274.8,183.603,177.953,-23.2226
8905,150477.6,183.938,178.293,-17.7678
8917,150680.4,184.278,178.632,-15.3927
8929,150883.2,184.618,178.973,-14.364
8941,151086,184.955,179.313,-13.903
8953,151288.8,185.29,179.654,-13.6269
8965,151491.6,185.627,179.993,-13.55739
8977,151694.4,185.969,180.332,-13.5755
8989,151897.2,186.309,180.672,-13.6086
9001,152100,186.647,181.012,-13.6653
9013,152302.8,186.982,181.352,-13.6361
9025,152505.6,187.317,181.691,-13.5366
9037,152708.4,187.653,182.031,-13.513
9049,152911.2,187.991,182.37,-13.4688
9061,153114,188.332,182.709,-13.5631
9073,153316.8,188.674,183.05,-13.6588
9085,153519.6,189.016,183.389,-13.6993
9097,153722.4,189.354,183.729,-13.6677
9109,153925.2,189.687,184.07,-13.6985
9121,154128,190.02,184.409,-13.69687
9133,154330.8,190.359,184.749,-13.6674
9145,154533.6,190.7,185.089,-13.73417
9157,154736.4,191.043,185.428,-13.80023
9169,154939.2,191.383,185.769,-13.7672
9181,155142,191.717,186.11,-13.79997
9193,155344.8,192.05,186.449,-13.8498
9205,155547.6,192.387,186.788,-13.895
9217,155750.4,192.729,187.128,-13.88022
9229,155953.2,193.071,187.467,-13.91956
9241,156156,193.409,187.808,-13.8976
9253,156358.8,193.743,188.149,-14.0125
9265,156561.6,194.08,188.489,-14.0398
9277,156764.4,194.416,188.829,-14.0482
9289,156967.2,194.751,189.169,-13.9737
9301,157170,195.089,189.508,-13.944
9313,157372.8,195.431,189.847,-13.9902
9325,157575.6,195.773,190.187,-14.0261
9337,157778.4,196.11,190.526,-14.0648
9349,157981.2,196.445,190.866,-13.9608
9361,158184,196.781,191.206,-14.0755
9373,158386.8,197.121,191.545,-14.1473
9385,158589.6,197.463,191.884,-14.0806
9397,158792.4,197.801,192.225,-14.0808
9409,158995.2,198.135,192.565,-14.1536
9421,159198,198.47,192.904,-14.2222
9433,159400.8,198.812,193.243,-14.12157
9445,159603.6,199.154,193.583,-14.0946
9457,159806.4,199.491,193.922,-14.09308
9469,160009.2,199.825,194.262,-14.1291
9481,160212,200.163,194.602,-14.1673
9493,160414.8,200.502,194.943,-14.2198
9505,160617.6,200.845,195.282,-14.2922
9517,160820.4,201.181,195.623,-14.33272
9529,161023.2,201.514,195.963,-14.3248
9541,161226,201.849,196.302,-14.2844
9553,161428.8,202.189,196.641,-14.3107
9565,161631.6,202.532,196.981,-14.2449
9577,161834.4,202.871,197.32,-14.2863
9589,162037.2,203.204,197.661,-14.327
9601,162240,203.541,198.001,-14.3505
9613,162442.8,203.88,198.3394,-14.4455
9625,162645.6,204.223,198.679,-14.4242
9637,162848.4,204.562,199.02,-14.5046
9649,163051.2,204.896,199.359,-14.5016
9661,163254,205.233,199.699,-14.5144
9673,163456.8,205.572,200.038,-14.5524
9685,163659.6,205.915,200.378,-14.6108
9697,163862.4,206.252,200.72,-14.6482
9709,164065.2,206.585,201.06,-14.6051
9721,164268,206.919,201.399,-14.5751
9733,164470.8,207.259,201.738,-14.5902
9745,164673.6,207.601,202.078,-14.6548
9757,164876.4,207.942,202.418,-14.8018
9769,165079.2,208.277,202.758,-14.7903
9781,165282,208.614,203.098,-14.8103
9793,165484.8,208.95,203.437,-14.8803
9805,165687.6,209.282,203.777,-14.9501
9817,165890.4,209.615,204.115,-14.9515
9829,166093.2,209.957,204.453,-14.9796
9841,166296,210.301,204.791,-14.95097
9853,166498.8,210.644,205.129,-14.9347
9865,166701.6,210.982,205.469,-14.9101
9877,166904.4,211.32,205.807,-14.8962
9889,167107.2,211.659,206.146,-14.9181
9901,167310,211.999,206.486,-14.909
9913,167512.8,212.336,206.825,-14.9926
9925,167715.6,212.672,207.165,-14.9434
9937,167918.4,213.01,207.506,-15.0208
9949,168121.2,213.344,207.845,-15.14265
9961,168324,213.678,208.185,-15.0579
9973,168526.8,214.016,208.523,-15.0206
9985,168729.6,214.357,208.8617,-15.1049
9997,168932.4,214.7,209.201,-15.1231
10009,169135.2,215.043,209.541,-15.1234
10021,169338,215.379,209.8813,-15.2273
10033,169540.8,215.711,210.222,-15.1496
10045,169743.6,216.047,210.561,-15.118
10057,169946.4,216.387,210.9,-15.288
10069,170149.2,216.729,211.24,-15.3454
10081,170352,217.07,211.58,-15.45524
10093,170554.8,217.406,211.92,-15.5714
10105,170757.6,217.744,212.26,-15.5398
10117,170960.4,218.082,212.601,-15.6026
10129,171163.2,218.415,212.941,-15.6249
10141,171366,218.753,213.281,-15.5557
10153,171568.8,219.093,213.622,-15.5948
10165,171771.6,219.435,213.962,-15.5184
10177,171974.4,219.776,214.303,-15.5981
10189,172177.2,220.115,214.644,-15.6937
10201,172380,220.45,214.986,-15.7923
10213,172582.8,220.786,215.327,-15.7793
10225,172785.6,221.124,215.668,-15.7301
10237,172988.4,221.462,216.009,-15.813
10249,173191.2,221.798,216.351,-15.9031
10261,173394,222.135,216.693,-15.935
10273,173596.8,222.473,217.034,-15.9245
10285,173799.6,222.81,217.374,-15.85303
10297,174002.4,223.148,217.716,-16.0866
10309,174205.2,223.487,218.057,-16.1536
10321,174408,223.827,218.397,-16.027
10333,174610.8,224.168,218.739,-16.0031
10345,174813.6,224.503,219.08,-16.1706
10357,175016.4,224.837,219.422,-16.1553
10369,175219.2,225.173,219.763,-16.1113
10381,175422,225.512,220.103,-16.1255
10393,175624.8,225.852,220.444,-16.17312
10405,175827.6,226.194,220.785,-16.1553
10417,176030.4,226.534,221.126,-16.06306
10429,176233.2,226.868,221.466,-16.2547
10441,176436,227.202,221.807,-16.0904
10453,176638.8,227.54,222.147,-16.1827
10465,176841.6,227.88,222.488,-16.3002
10477,177044.4,228.221,222.829,-16.4215
10489,177247.2,228.564,223.169,-16.37194
10501,177450,228.902,223.511,-16.5628
10513,177652.8,229.238,223.853,-16.6476
10525,177855.6,229.57,224.193,-16.6641
10537,178058.4,229.907,224.534,-16.7836
10549,178261.2,230.245,224.874,-16.6267
10561,178464,230.587,225.215,-16.7375
10573,178666.8,230.928,225.556,-16.7965
10585,178869.6,231.27,225.897,-16.9154
10597,179072.4,231.605,226.239,-16.761
10609,179275.2,231.94,226.58,-16.9186
10621,179478,232.272,226.923,-16.9398
10633,179680.8,232.607,227.262,-16.9742
10645,179883.6,232.948,227.603,-16.9242
10657,180086.4,233.288,227.943,-17.0174
10669,180289.2,233.628,228.283,-17.1828
10681,180492,233.964,228.623,-17.2534
10693,180694.8,234.302,228.963,-17.3155
10705,180897.6,234.643,229.304,-17.4699
10717,181100.4,234.981,229.644,-17.4992
10729,181303.2,235.32,229.985,-17.4101
10741,181506,235.659,230.326,-17.5188
10753,181708.8,235.994,230.666,-17.6753
10765,181911.6,236.33,231.006,-17.7158
10777,182114.4,236.669,231.347,-17.7641
10789,182317.2,237.005,231.687,-17.7348
10801,182520,237.342,232.027,-17.63746
10813,182722.8,237.681,232.367,-17.7759
10825,182925.6,238.021,232.707,-17.9018
10837,183128.4,238.36,233.046,-18.0101
10849,183331.2,238.699,233.387,-17.9888
10861,183534,239.037,233.727,-18.0043
10873,183736.8,239.377,234.068,-18.1417
10885,183939.6,239.715,234.408,-18.3399
10897,184142.4,240.052,234.749,-18.2965
10909,184345.2,240.388,235.089,-18.4583
10921,184548,240.727,235.429,-18.5314
10933,184750.8,241.063,235.77,-18.6075
10945,184953.6,241.4,236.111,-18.6709
10957,185156.4,241.737,236.451,-18.6099
10969,185359.2,242.076,236.79,-18.7028
10981,185562,242.417,237.131,-18.8639
10993,185764.8,242.755,237.471,-18.9435
11005,185967.6,243.093,237.813,-19.0867
11017,186170.4,243.431,238.152,-19.0621
11029,186373.2,243.767,238.493,-19.2593
11041,186576,244.105,238.833,-19.2814
11053,186778.8,244.441,239.173,-19.4104
11065,186981.6,244.778,239.514,-19.478
11077,187184.4,245.116,239.853,-19.5619
11089,187387.2,245.455,240.193,-19.6621
11101,187590,245.795,240.532,-19.6492
11113,187792.8,246.132,240.872,-19.878
11125,187995.6,246.47,241.212,-19.892
11137,188198.4,246.81,241.552,-19.9692
11149,188401.2,247.148,241.892,-20.0844
11161,188604,247.487,242.231,-20.1654
11173,188806.8,247.823,242.572,-20.42203
11185,189009.6,248.16,242.912,-20.6677
11197,189212.4,248.499,243.252,-20.8084
11209,189415.2,248.838,243.591,-20.9236
11221,189618,249.176,243.932,-20.826
11233,189820.8,249.514,244.272,-21.0049
11245,190023.6,249.853,244.611,-21.2709
11257,190226.4,250.19,244.952,-21.4595
11269,190429.2,250.527,245.292,-21.6708
11281,190632,250.866,245.632,-21.8393
11293,190834.8,251.204,245.972,-22.0209
11305,191037.6,251.542,246.312,-22.1569
11317,191240.4,251.88,246.652,-22.3711
11329,191443.2,252.218,246.9919,-22.5638
11341,191646,252.555,247.332,-22.8024
11353,191848.8,252.891,247.672,-22.9285
11365,192051.6,253.229,248.011,-23.14104
11377,192254.4,253.569,248.352,-23.3375
11389,192457.2,253.909,248.692,-23.5406
11401,192660,254.246,249.032,-23.6857
11413,192862.8,254.584,249.371,-23.97659
11425,193065.6,254.922,249.712,-24.2164
11437,193268.4,255.258,250.051,-24.5197
11449,193471.2,255.596,250.391,-24.8133
11461,193674,255.932,250.73,-25.0264
11473,193876.8,256.271,251.07,-25.3363
11485,194079.6,256.609,251.409,-25.5028
11497,194282.4,256.948,251.749,-25.7382
11509,194485.2,257.287,252.089,-26.0903
11521,194688,257.624,252.428,-26.4388
11533,194890.8,257.963,252.768,-26.7683
11545,195093.6,258.302,253.107,-27.1839
11557,195296.4,258.638,253.447,-27.5996
11569,195499.2,258.977,253.786,-27.952
11581,195702,259.315,254.126,-28.3081
11593,195904.8,259.652,254.466,-28.8209
11605,196107.6,259.993,254.805,-29.18679
11617,196310.4,260.329,255.145,-29.7228
11629,196513.2,260.667,255.4856,-30.2563
11641,196716,261.005,255.825,-30.755
11653,196918.8,261.343,256.164,-31.2922
11665,197121.6,261.682,256.503,-31.93763
11677,197324.4,262.018,256.843,-32.5927
11689,197527.2,262.356,257.182,-33.164
11701,197730,262.694,257.521,-33.8268
11713,197932.8,263.032,257.861,-34.6017
11725,198135.6,263.372,258.201,-35.3406
11737,198338.4,263.709,258.541,-36.2092
11749,198541.2,264.047,258.881,-37.1377
11761,198744,264.386,259.221,-38.0185
11773,198946.8,264.725,259.561,-39.0271
11785,199149.6,265.064,259.901,-40.0674
11797,199352.4,265.401,260.24,-41.1337
11809,199555.2,265.737,260.581,-42.2503
11821,199758,266.075,260.921,-43.5089
11833,199960.8,266.413,261.26,-44.89746
11845,200163.6,266.751,261.601,-46.2932
11857,200366.4,267.088,261.939,-47.9387
11869,200569.2,267.426,262.278,-49.6169
11881,200772,267.765,262.617,-51.3972
11893,200974.8,268.102,262.957,-53.4257
11905,201177.6,268.442,263.295,-55.5062
11917,201380.4,268.78,263.633,-57.83321
11929,201583.2,269.118,263.973,-60.317
11941,201786,269.455,264.312,-63.0182
11953,201988.8,269.792,264.65,-65.8838
11965,202191.6,270.13,264.989,-68.9505
11977,202394.4,270.469,265.327,-72.4109
11989,202597.2,270.807,265.666,-76.2432
12001,202800,271.144,266.005,-80.29743
12013,203002.8,271.483,266.343,-84.8284
12025,203205.6,271.82,266.681,-89.7026
12037,203408.4,272.156,267.019,-95.1147
12049,203611.2,272.495,267.357,-100.918
12061,203814,272.834,267.696,-107.292
12073,204016.8,273.172,268.033,-114.172
12085,204219.6,273.51,268.371,-121.583
12097,204422.4,273.848,268.708,-129.807
12109,204625.2,274.185,269.046,-138.929
12121,204828,274.523,269.383,-149.031
12133,205030.8,274.863,269.72,-160.24
12145,205233.6,275.203,270.057,-172.39
12157,205436.4,275.538,270.393,-185.686
12169,205639.2,275.877,270.73,-200.254
12181,205842,276.215,271.065,-215.96
12193,206044.8,276.551,271.401,-233.292
12205,206247.6,276.887,271.736,-253.216
12217,206450.4,277.224,272.07,-271.586
12229,206653.2,277.561,272.404,-289.709
12241,206856,277.901,272.738,-308.355
12253,207058.8,278.241,273.07,-326.988
12265,207261.6,278.581,273.403,-345.187
12277,207464.4,278.923,273.737,-362.99
12289,207667.2,279.259,274.071,-378.674
12301,207870,279.594,274.404,-388.121
12313,208072.8,279.929,274.739,-386.685
12325,208275.6,280.267,275.072,-371.784
12337,208478.4,280.605,275.408,-337.802
12349,208681.2,280.944,275.745,-270.767
12361,208884,281.285,276.085,-173.887
12373,209086.8,281.625,276.428,-108.917
12385,209289.6,281.963,276.772,-74.4018
12397,209492.4,282.3,277.118,-56.057
12409,209695.2,282.636,277.463,-46.3355
12421,209898,282.975,277.808,-41.1844
12433,210100.8,283.316,278.152,-38.4351
12445,210303.6,283.656,278.497,-36.959
12457,210506.4,283.996,278.841,-36.1771
12469,210709.2,284.331,279.185,-35.7589
12481,210912,284.665,279.529,-35.4961
12493,211114.8,285,279.872,-35.3473
12505,211317.6,285.337,280.214,-35.2279
12517,211520.4,285.674,280.556,-35.1235
12529,211723.2,286.013,280.898,-35.0195
12541,211926,286.352,281.239,-34.9991
12553,212128.8,286.695,281.58,-34.9512
12565,212331.6,287.034,281.921,-34.9164
12577,212534.4,287.37,282.262,-34.8793
12589,212737.2,287.706,282.603,-34.8574
12601,212940,288.045,282.944,-34.8319
12613,213142.8,288.386,283.285,-34.81669
12625,213345.6,288.724,283.626,-34.7964
12637,213548.4,289.061,283.967,-34.7859
12649,213751.2,289.397,284.307,-34.7787
12661,213954,289.736,284.648,-34.7593
12673,214156.8,290.075,284.989,-34.7393
12685,214359.6,290.414,285.329,-34.7095
12697,214562.4,290.752,285.67,-34.7313
12709,214765.2,291.089,286.011,-34.7388
12721,214968,291.423,286.351,-34.7301
12733,215170.8,291.76,286.691,-34.6631
12745,215373.6,292.1,287.031,-34.6156
12757,215576.4,292.439,287.371,-34.6054
12769,215779.2,292.779,287.711,-34.597
12781,215982,293.117,288.05,-34.5949
12793,216184.8,293.454,288.39,-34.5917
12805,216387.6,293.79,288.73,-34.5911
12817,216590.4,294.126,289.069,-34.5567
12829,216793.2,294.465,289.408,-34.5339
12841,216996,294.807,289.747,-34.50841
12853,217198.8,295.146,290.086,-34.4961
12865,217401.6,295.481,290.425,-34.4838
12877,217604.4,295.817,290.764,-34.4526
12889,217807.2,296.154,291.103,-34.4124
12901,218010,296.492,291.441,-34.3513
12913,218212.8,296.831,291.779,-34.3118
12925,218415.6,297.169,292.116,-34.2902
12937,218618.4,297.508,292.453,-34.2676
12949,218821.2,297.848,292.79,-34.2475
12961,219024,298.185,293.125,-34.2066
12973,219226.8,298.523,293.462,-34.167
12985,219429.6,298.861,293.797,-34.1278
12997,219632.4,299.1959,294.132,-34.0883
13009,219835.2,299.226,294.457,-33.9747
13021,220038,299.2,294.758,-33.45877
13033,220240.8,299.1794,295.036,-32.3172
13045,220443.6,299.169,295.293,-30.6789
13057,220646.4,299.163,295.529,-28.7955
13069,220849.2,299.164,295.747,-26.8027
13081,221052,299.164,295.948,-24.8336
13093,221254.8,299.166,296.134,-22.9417
13105,221457.6,299.165,296.306,-21.1916
13117,221660.4,299.162,296.464,-19.5428
13129,221863.2,299.159,296.61,-17.9925
13141,222066,299.16,296.743,-16.5371
13153,222268.8,299.161,296.866,-15.1778
13165,222471.6,299.161,296.98,-13.92712
13177,222674.4,299.161,297.085,-12.7861
13189,222877.2,299.158,297.182,-11.7352
13201,223080,299.156,297.271,-10.7429
13213,223282.8,299.153,297.353,-9.827769
13225,223485.6,299.153,297.427,-8.972304
13237,223688.4,299.154,297.496,-8.179516
13249,223891.2,299.154,297.559,-7.448872
13261,224094,299.152,297.617,-6.791493
13273,224296.8,299.152,297.671,-6.184873
13285,224499.6,299.151,297.72,-5.622809
13297,224702.4,299.151,297.765,-5.102879
13309,224905.2,299.151,297.806,-4.639496
13321,225108,299.151,297.844,-4.208093
13333,225310.8,299.151,297.88,-3.798188
13345,225513.6,299.151,297.912,-3.43021
13357,225716.4,299.151,297.942,-3.090239
13369,225919.2,299.152,297.968,-2.766948
13381,226122,299.154,297.993,-2.484527
13393,226324.8,299.155,298.018,-2.233704
13405,226527.6,299.153,298.039,-2.025292
13417,226730.4,299.152,298.059,-1.807968
13429,226933.2,299.15,298.076,-1.609362
13441,227136,299.151,298.093,-1.398751
13453,227338.8,299.152,298.109,-1.217667
13465,227541.6,299.153,298.123,-1.06731
13477,227744.4,299.151,298.136,-0.928114
13489,227947.2,299.151,298.148,-0.799562
13501,228150,299.152,298.159,-0.665522
13513,228352.8,299.152,298.169,-0.551907
13525,228555.6,299.152,298.179,-0.45151
13537,228758.4,299.15,298.187,-0.378743
13549,228961.2,299.15,298.194,-0.293451
13561,229164,299.15,298.202,-0.205414
13573,229366.8,299.15,298.209,-0.116521
13585,229569.6,299.148,298.214,-0.046848
13597,229772.4,299.146,298.22,0.023681
13609,229975.2,299.149,298.224,0.090778
13621,230178,299.151,298.228,0.147235
13633,230380.8,299.153,298.232,0.20352
13645,230583.6,299.153,298.237,0.251053
13657,230786.4,299.153,298.24,0.279367
13669,230989.2,299.153,298.244,0.306135
13681,231192,299.149,298.248,0.327584
13693,231394.8,299.148,298.25,0.348004
13705,231597.6,299.151,298.252,0.379577
13717,231800.4,299.151,298.254,0.409435
13729,232003.2,299.152,298.257,0.43054
13741,232206,299.151,298.259,0.456451
13753,232408.8,299.15,298.261,0.475669
13765,232611.6,299.15,298.263,0.497804
13777,232814.4,299.15,298.265,0.509986
13789,233017.2,299.151,298.267,0.520453
13801,233220,299.147,298.268,0.533493
13813,233422.8,299.149,298.269,0.544818
13825,233625.6,299.151,298.27,0.558717
13837,233828.4,299.152,298.272,0.575189
13849,234031.2,299.154,298.272,0.583426
13861,234234,299.153,298.274,0.591833
13873,234436.8,299.151,298.276,0.593376
13885,234639.6,299.151,298.277,0.59389
13897,234842.4,299.151,298.278,0.600067
13909,235045.2,299.15,298.279,0.604013
13921,235248,299.15,298.28,0.604184
13933,235450.8,299.15,298.281,0.610189
13945,235653.6,299.149,298.281,0.606243
13957,235856.4,299.149,298.282,0.627348
13969,236059.2,299.149,298.281,0.639532
13981,236262,299.149,298.282,0.654631
13993,236464.8,299.147,298.283,0.672305
14005,236667.6,299.146,298.282,0.680542
14017,236870.4,299.149,298.282,0.691696
14029,237073.2,299.151,298.283,0.696329
14041,237276,299.153,298.282,0.702334
14053,237478.8,299.153,298.283,0.702162
14065,237681.6,299.154,298.284,0.700618
14077,237884.4,299.153,298.285,0.685345
14089,238087.2,299.152,298.285,0.675393
14101,238290,299.151,298.286,0.666126
14113,238492.8,299.151,298.286,0.662866
14125,238695.6,299.151,298.287,0.659604
14137,238898.4,299.15,298.287,0.658403
14149,239101.2,299.149,298.288,0.652397
14161,239304,299.149,298.288,0.658574
14173,239506.8,299.147,298.289,0.661491
14185,239709.6,299.147,298.289,0.67436
14197,239912.4,299.146,298.289,0.688946
14209,240115.2,299.147,298.288,0.701644
14221,240318,299.147,298.2881,0.716058
14233,240520.8,299.147,298.288,0.73236
14245,240723.6,299.148,298.288,0.739052
14257,240926.4,299.151,298.288,0.756726
14269,241129.2,299.152,298.287,0.74849
14281,241332,299.152,298.288,0.738365
14293,241534.8,299.149,298.288,0.732703
14305,241737.6,299.149,298.287,0.726526
14317,241940.4,299.151,298.287,0.729958
14329,242143.2,299.151,298.287,0.736993
14341,242346,299.153,298.287,0.743171
14353,242548.8,299.153,298.287,0.746087
14365,242751.6,299.152,298.287,0.734076
14377,242954.4,299.147,298.287,0.719319
14389,243157.2,299.144,298.287,0.721893
14401,243360,299.145,298.286,0.742828
14413,243562.8,299.149,298.284,0.763764
14425,243765.6,299.152,298.284,0.792249
14437,243968.4,299.152,298.284,0.792249
14449,244171.2,299.153,298.283,0.775604
14461,244374,299.152,298.284,0.753125
14473,244576.8,299.153,298.284,0.733392
14485,244779.6,299.152,298.285,0.717433
14497,244982.4,299.15,298.285,0.699073
14509,245185.2,299.148,298.285,0.694954
14521,245388,299.148,298.285,0.698558
14533,245590.8,299.149,298.286,0.703018
14545,245793.6,299.149,298.286,0.710568
14557,245996.4,299.149,298.285,0.709539
14569,246199.2,299.149,298.286,0.716574
14581,246402,299.151,298.286,0.720692
14593,246604.8,299.152,298.286,0.721036
14605,246807.6,299.15,298.287,0.71829
14617,247010.4,299.151,298.287,0.710568
14629,247213.2,299.152,298.287,0.69461
14641,247416,299.152,298.288,0.697183
14653,247618.8,299.151,298.288,0.693407
14665,247821.6,299.151,298.288,0.688431
14677,248024.4,299.15,298.289,0.680881
14689,248227.2,299.147,298.289,0.692549
14701,248430,299.145,298.288,0.703875
14713,248632.8,299.146,298.288,0.724295
14725,248835.6,299.149,298.288,0.754667
14737,249038.4,299.15,298.287,0.769768
14749,249241.2,299.152,298.287,0.776803
14761,249444,299.1525,298.287,0.773199
14773,249646.8,299.153,298.286,0.747461
14785,249849.6,299.152,298.287,0.746087
14797,250052.4,299.151,298.287,0.730644
14809,250255.2,299.152,298.287,0.730129
14821,250458,299.149,298.288,0.720348
14833,250660.8,299.146,298.287,0.71194
14845,250863.6,299.146,298.287,0.718118
14857,251066.4,299.148,298.286,0.729787
14869,251269.2,299.151,298.286,0.740597
14881,251472,299.154,298.286,0.749863
14893,251674.8,299.153,298.287,0.743857
14905,251877.6,299.151,298.286,0.730473
14917,252080.4,299.151,298.287,0.714858
14929,252283.2,299.151,298.287,0.706793
14941,252486,299.15,298.288,0.69907
14953,252688.8,299.15,298.288,0.697354
14954,252705.7,299.15,298.288,0.69684