File: i_data/0.10Kmin/old_wt%/H2O-NH3_5.83wt%.csv
H2O-NH3 6wt% Specific Heat - Large HF,,,,
Creation Date : 9/12/2022 10:05:39 AM,,,,
User : admin,,,,
,,,,
HeatFlow :,,,,
 Initial Mass : 4629.3 mg,,,,
 Molar Mass : 17 g/mol,,,,
,,,,
Index,Time(s),Furnace Temperature(K),Sample Temperature(K),HeatFlow(mW)
1,0,300.53,300.583,115.949
13,202.8,300.528,300.583,59.8522
25,405.6,300.524,300.582,30.9534
37,608.4,300.518,300.579,15.9929
49,811.2,300.5,300.576,8.239421
61,1014,300.462,300.57,4.253537
73,1216.8,300.386,300.561,2.276347
85,1419.6,300.255,300.545,1.433461
97,1622.4,300.05,300.516,1.314327
109,1825.2,299.749,300.469,1.778771
121,2028,299.317,300.397,2.801395
133,2230.8,298.697,300.288,4.427137
145,2433.6,297.852,300.128,6.863707
157,2636.4,296.779,299.903,10.3786
169,2839.2,295.505,299.599,15.1203
181,3042,294.079,299.208,21.0739
193,3244.8,292.566,298.728,28.0625
205,3447.6,291.003,298.162,35.8058
217,3650.4,289.414,297.513,43.92165
229,3853.2,287.815,296.786,52.0974
241,4056,286.212,295.986,60.0958
253,4258.8,284.625,295.124,67.72529
265,4461.6,283.056,294.205,74.8524
277,4664.4,281.509,293.241,81.3339
289,4867.2,279.9879,292.238,86.94923
301,5070,278.492,291.197,91.8453
313,5272.8,277.021,290.114,96.4604
325,5475.6,275.577,289.001,100.682
337,5678.4,274.158,287.863,104.415
349,5881.2,272.761,286.704,107.62
361,6084,271.386,285.53,110.32
373,6286.8,270.027,284.341,112.559
385,6489.6,268.683,283.142,114.413
397,6692.4,267.353,281.934,115.955
409,6895.2,266.039,280.72,117.221
421,7098,264.74,279.5,118.246
433,7300.8,263.463,278.279,119.039
445,7503.6,262.205,277.056,119.644
457,7706.4,260.961,275.834,120.047
469,7909.2,259.734,274.613,120.341
481,8112,258.518,273.394,120.431
493,8314.8,257.312,272.182,120.437
505,8517.6,256.117,270.972,120.389
517,8720.4,254.933,269.766,120.215
529,8923.2,253.765,268.565,119.912
541,9126,252.612,267.37,119.574
553,9328.8,251.467,266.182,119.223
565,9531.6,250.328,264.999,118.753
577,9734.4,249.199,263.822,118.219
589,9937.2,248.079,262.653,117.612
601,10140,246.971,261.492,117.295
613,10342.8,245.875,260.336,116.948
625,10545.6,244.794,259.189,116.285
637,10748.4,243.723,258.051,115.608
649,10951.2,242.665,256.92,114.951
661,11154,241.622,255.798,115.456
673,11356.8,240.589,254.685,114.345
685,11559.6,239.567,253.58,113.339
697,11762.4,238.559,252.488,989.411
709,11965.2,237.562,251.444,1136.87
721,12168,236.573,250.397,948.495
733,12370.8,235.589,249.347,701.853
745,12573.6,234.615,248.297,496.785
757,12776.4,233.653,247.25,353.805
769,12979.2,232.704,246.208,261.666
781,13182,231.764,245.174,203.426
793,13384.8,230.835,244.148,166.752
805,13587.6,229.919,243.131,143.706
817,13790.4,229.013,242.123,128.478
829,13993.2,228.113,241.125,117.814
841,14196,227.222,240.137,109.716
853,14398.8,226.334,239.157,102.99
865,14601.6,225.456,238.186,97.8
877,14804.4,224.587,237.224,93.5097
889,15007.2,223.718,236.272,89.3885
901,15210,222.85,235.326,85.32914
913,15412.8,221.989,234.389,82.2581
925,15615.6,221.136,233.46,79.6207
937,15818.4,220.288,232.537,76.92367
949,16021.2,219.446,231.622,74.20832
961,16224,218.611,230.715,72.1607
973,16426.8,217.78,229.814,69.9015
985,16629.6,216.959,228.921,67.8192
997,16832.4,216.143,228.034,65.7411
1009,17035.2,215.338,227.155,64.3468
1021,17238,214.537,226.282,62.6603
1033,17440.8,213.731,225.416,60.8644
1045,17643.6,212.922,224.556,59.43043
1057,17846.4,212.119,223.701,58.4136
1069,18049.2,211.325,222.852,57.5066
1081,18252,210.541,222.009,56.1269
1093,18454.8,209.764,221.171,55.3447
1105,18657.6,208.995,220.34,53.95628
1117,18860.4,208.236,219.514,52.9329
1129,19063.2,207.479,218.695,52.0652
1141,19266,206.724,217.882,50.9386
1153,19468.8,205.976,217.074,49.4455
1165,19671.6,205.234,216.272,48.0508
1177,19874.4,204.497,215.477,47.0428
1189,20077.2,203.768,214.688,46.1416
1201,20280,203.045,213.904,45.3743
1213,20482.8,202.326,213.125,44.3209
1225,20685.6,201.614,212.352,43.3156
1237,20888.4,200.907,211.585,42.4399
1249,21091.2,200.199,210.822,42.1677
1261,21294,199.493,210.065,41.7157
1273,21496.8,198.794,209.312,40.9372
1285,21699.6,198.103,208.566,39.9636
1297,21902.4,197.415,207.825,39.5268
1309,22105.2,196.728,207.088,39.151
1321,22308,196.049,206.355,38.66666
1333,22510.8,195.383,205.628,38.1176
1345,22713.6,194.721,204.908,37.2807
1357,22916.4,194.058,204.191,36.883
1369,23119.2,193.394,203.48,35.7982
1381,23322,192.732,202.773,35.1555
1393,23524.8,192.081,202.07,35.3565
1405,23727.6,191.445,201.373,34.7057
1417,23930.4,190.818,200.681,33.7411
1429,24133.2,190.196,199.993,33.5154
1441,24336,189.581,199.313,33.599
1453,24538.8,188.966,198.638,33.2304
1465,24741.6,188.341,197.968,32.3103
1477,24944.4,187.705,197.301,31.852
1489,25147.2,187.069,196.637,31.3803
1501,25350,186.441,195.976,30.6398
1513,25552.8,185.83,195.318,30.5053
1525,25755.6,185.231,194.666,30.6114
1537,25958.4,184.639,194.018,29.7501
1549,26161.2,184.052,193.374,29.4299
1561,26364,183.472,192.736,29.3558
1573,26566.8,182.901,192.103,28.6522
1585,26769.6,182.332,191.475,28.3282
1597,26972.4,181.77,190.852,27.6707
1609,27175.2,181.209,190.233,27.6739
1621,27378,180.635,189.62,27.2275
1633,27580.8,180.05,189.009,27.0603
1645,27783.6,179.464,188.4,26.9305
1657,27986.4,178.884,187.793,26.5925
1669,28189.2,178.313,187.189,26.00408
1681,28392,177.754,186.589,26.0252
1693,28594.8,177.197,185.993,26.0206
1705,28797.6,176.634,185.399,25.7622
1717,29000.4,176.072,184.808,24.8764
1729,29203.2,175.521,184.22,24.7526
1741,29406,174.986,183.636,24.8105
1753,29608.8,174.466,183.056,24.26043
1765,29811.6,173.949,182.482,24.3459
1777,30014.4,173.434,181.911,24.3779
1789,30217.2,172.929,181.345,23.9384
1801,30420,172.425,180.784,23.7236
1813,30622.8,171.908,180.227,23.34891
1825,30825.6,171.383,179.673,23.01614
1837,31028.4,170.859,179.121,22.7885
1849,31231.2,170.342,178.571,22.6095
1861,31434,169.842,178.025,22.4522
1873,31636.8,169.359,177.484,21.7668
1885,31839.6,168.875,176.947,21.4313
1897,32042.4,168.381,176.413,21.2241
1909,32245.2,167.881,175.883,21.1216
1921,32448,167.385,175.354,20.92187
1933,32650.8,166.896,174.83,20.95895
1945,32853.6,166.42,174.307,21.0829
1957,33056.4,165.954,173.789,21.2364
1969,33259.2,165.488,173.276,20.9448
1981,33462,165.011,172.764,20.8239
1993,33664.8,164.528,172.256,20.2054
2005,33867.6,164.047,171.749,20.1918
2017,34070.4,163.576,171.245,19.93172
2029,34273.2,163.124,170.745,19.7681
2041,34476,162.687,170.249,19.6602
2053,34678.8,162.255,169.757,19.1885
2065,34881.6,161.825,169.27,18.8819
2077,35084.4,161.404,168.786,18.678
2089,35287.2,160.9952,168.308,18.7403
2101,35490,160.581,167.834,18.767
2113,35692.8,160.159,167.365,18.4909
2125,35895.6,159.734,166.899,18.0508
2137,36098.4,159.305,166.435,18.0392
2149,36301.2,158.878,165.975,18.0073
2161,36504,158.449,165.516,17.4536
2173,36706.8,158.009,165.06,17.62059
2185,36909.6,157.565,164.605,17.4744
2197,37112.4,157.128,164.151,17.3611
2209,37315.2,156.706,163.699,17.1101
2221,37518,156.307,163.25,16.8954
2233,37720.8,155.925,162.805,16.6736
2245,37923.6,155.552,162.365,17.0419
2257,38126.4,155.188,161.93,16.6583
2269,38329.2,154.827,161.5,16.3612
2281,38532,154.451,161.075,16.0085
2293,38734.8,154.061,160.651,15.9796
2305,38937.6,153.667,160.23,15.7868
2317,39140.4,153.283,159.812,15.7981
2329,39343.2,152.914,159.396,15.708
2341,39546,152.556,158.984,15.4209
2353,39748.8,152.2,158.577,15.21366
2365,39951.6,151.848,158.172,15.1922
2377,40154.4,151.51,157.772,14.9341
2389,40357.2,151.184,157.377,14.6726
2401,40560,150.8506,156.985,14.5643
2413,40762.8,150.503,156.596,14.3768
2425,40965.6,150.151,156.211,14.4118
2437,41168.4,149.795,155.828,14.272
2449,41371.2,149.428,155.447,13.9456
2461,41574,149.051,155.066,13.8715
2473,41776.8,148.677,154.686,13.8581
2485,41979.6,148.317,154.307,13.6634
2497,42182.4,147.975,153.929,13.5971
2509,42385.2,147.647,153.554,13.1726
2521,42588,147.326,153.184,13.4657
2533,42790.8,147.017,152.817,13.4301
2545,42993.6,146.728,152.455,13.08512
2557,43196.4,146.444,152.098,12.6664
2569,43399.2,146.144,151.744,12.4626
2581,43602,145.829,151.393,12.3852
2593,43804.8,145.508,151.045,12.4854
2605,44007.6,145.181,150.699,12.6172
2617,44210.4,144.836,150.353,12.3586
2629,44413.2,144.482,150.007,12.3675
2641,44616,144.128,149.661,12.1649
2653,44818.8,143.786,149.315,12.1083
2665,45021.6,143.459,148.97,11.9802
2677,45224.4,143.144,148.626,11.8361
2689,45427.2,142.822,148.285,11.7223
2701,45630,142.487,147.944,11.7098
2713,45832.8,142.147,147.603,11.7025
2725,46035.6,141.815,147.263,11.7938
2737,46238.4,141.5,146.925,11.6988
2749,46441.2,141.207,146.589,11.6721
2761,46644,140.93,146.256,11.6514
2773,46846.8,140.668,145.927,11.6824
2785,47049.6,140.409,145.603,11.2698
2797,47252.4,140.132,145.281,11.1269
2809,47455.2,139.837,144.963,10.8821
2821,47658,139.534,144.646,10.9087
2833,47860.8,139.236,144.329,10.7002
2845,48063.6,138.949,144.015,10.6028
2857,48266.4,138.664,143.702,10.6424
2869,48469.2,138.375,143.391,10.6004
2881,48672,138.082,143.082,10.5657
2893,48874.8,137.784,142.773,10.5575
2905,49077.6,137.487,142.465,10.5086
2917,49280.4,137.185,142.158,10.362
2929,49483.2,136.872,141.851,10.3012
2941,49686,136.553,141.543,10.3707
2953,49888.8,136.24,141.235,10.2398
2965,50091.6,135.943,140.927,10.2136
2977,50294.4,135.67,140.621,10.1087
2989,50497.2,135.41,140.317,10.123
3001,50700,135.145,140.017,10.1326
3013,50902.8,134.875,139.718,10.063
3025,51105.6,134.608,139.422,10.0636
3037,51308.4,134.355,139.127,10.0304
3049,51511.2,134.123,138.836,9.784071
3061,51714,133.903,138.548,9.76379
3073,51916.8,133.686,138.265,9.537593
3085,52119.6,133.474,137.987,9.308668
3097,52322.4,133.277,137.714,9.111787
3109,52525.2,133.083,137.444,8.846635
3121,52728,132.871,137.18,8.882476
3133,52930.8,132.643,136.9186,8.671039
3145,53133.6,132.408,136.658,8.545711
3157,53336.4,132.174,136.399,8.527127
3169,53539.2,131.937,136.143,8.332319
3181,53742,131.69,135.887,8.341525
3193,53944.8,131.441,135.63,8.233178
3205,54147.6,131.204,135.376,8.119415
3217,54350.4,130.987,135.122,7.950963
3229,54553.2,130.782,134.873,7.978855
3241,54756,130.579,134.626,7.923529
3253,54958.8,130.374,134.381,7.737522
3265,55161.6,130.176,134.14,7.729496
3277,55364.4,129.983,133.9,7.574588
3289,55567.2,129.773,133.664,7.537518
3301,55770,129.541,133.428,7.422502
3313,55972.8,129.296,133.192,7.419964
3325,56175.6,129.051,132.956,7.497165
3337,56378.4,128.82,132.72,7.498799
3349,56581.2,128.606,132.484,7.290869
3361,56784,128.393,132.25,7.309432
3373,56986.8,128.168,132.017,7.363873
3385,57189.6,127.934,131.784,7.235873
3397,57392.4,127.705,131.551,7.161939
3409,57595.2,127.487,131.319,7.175237
3421,57798,127.281,131.088,7.11396
3433,58000.8,127.068,130.859,7.03129
3445,58203.6,126.844,130.63,7.043815
3457,58406.4,126.619,130.401,6.994598
3469,58609.2,126.403,130.173,6.883093
3481,58812,126.202,129.947,6.846839
3493,59014.8,126.01,129.721,6.914857
3505,59217.6,125.813,129.499,6.856522
3517,59420.4,125.619,129.277,6.748408
3529,59623.2,125.437,129.057,6.608691
3541,59826,125.266,128.841,6.569279
3553,60028.8,125.089,128.627,6.592704
3565,60231.6,124.903,128.415,6.463256
3577,60434.4,124.718,128.206,6.413922
3589,60637.2,124.542,127.997,6.286873
3601,60840,124.377,127.791,6.218285
3613,61042.8,124.213,127.588,6.074156
3625,61245.6,124.042,127.387,6.141859
3637,61448.4,123.869,127.187,6.043547
3649,61651.2,123.708,126.99,5.929033
3661,61854,123.56,126.795,5.79418
3673,62056.8,123.406,126.603,5.707077
3685,62259.6,123.241,126.413,5.634198
3697,62462.4,123.072,126.224,5.503909
3709,62665.2,122.907,126.036,5.441462
3721,62868,122.754,125.8505,5.416292
3733,63070.8,122.613,125.668,5.343919
3745,63273.6,122.461,125.487,5.267978
3757,63476.4,122.287,125.308,5.212605
3769,63679.2,122.097,125.127,5.128774
3781,63882,121.903,124.947,5.13503
3793,64084.8,121.72,124.765,5.063907
3805,64287.6,121.551,124.585,5.104237
3817,64490.4,121.383,124.405,5.039098
3829,64693.2,121.206,124.224,5.045304
3841,64896,121.025,124.045,5.066205
3853,65098.8,120.851,123.866,5.068184
3865,65301.6,120.688,123.686,5.101636
3877,65504.4,120.521,123.508,5.124922
3889,65707.2,120.344,123.33,5.047111
3901,65910,120.169,123.153,4.958309
3913,66112.8,120.005,122.976,4.874737
3925,66315.6,119.861,122.801,4.859887
3937,66518.4,119.73,122.628,4.808992
3949,66721.2,119.602,122.457,4.776482
3961,66924,119.475,122.29,4.719504
3973,67126.8,119.358,122.125,4.615404
3985,67329.6,119.25,121.9634,4.5064
3997,67532.4,119.131,121.804,4.415748
4009,67735.2,118.992,121.648,4.345526
4021,67938,118.8431,121.491,4.294995
4033,68140.8,118.696,121.336,4.198863
4045,68343.6,118.549,121.18,4.169379
4057,68546.4,118.394,121.025,4.129147
4069,68749.2,118.23,120.87,4.118572
4081,68952,118.069,120.714,4.177895
4093,69154.8,117.921,120.558,4.190787
4105,69357.6,117.786,120.403,4.151886
4117,69560.4,117.655,120.25,4.036649
4129,69763.2,117.514,120.098,3.98671
4141,69966,117.369,119.946,4.028708
4153,70168.8,117.228,119.795,4.019023
4165,70371.6,117.101,119.645,4.012219
4177,70574.4,116.991,119.496,3.944498
4189,70777.2,116.886,119.35,4.331222
4201,70980,116.78,119.208,4.00275
4213,71182.8,116.68,119.067,3.805011
4225,71385.6,116.594,118.93,3.688642
4237,71588.4,116.508,118.795,3.619393
4249,71791.2,116.409,118.663,3.501354
4261,71994,116.297,118.532,3.41328
4273,72196.8,116.182,118.403,3.34347
4285,72399.6,116.071,118.274,3.289397
4297,72602.4,115.958,118.147,3.280435
4309,72805.2,115.838,118.021,3.222646
4321,73008,115.722,117.894,3.205656
4333,73210.8,115.618,117.769,3.177429
4345,73413.6,115.528,117.645,3.149699
4357,73616.4,115.432,117.5241,3.108611
4369,73819.2,115.323,117.403,3.078087
4381,74022,115.209,117.283,3.027085
4393,74224.8,115.099,117.164,3.000847
4405,74427.6,114.997,117.044,2.96746
4417,74630.4,114.89,116.927,2.912952
4429,74833.2,114.77,116.809,2.911711
4441,75036,114.64,116.691,2.928285
4453,75238.8,114.51,116.573,2.948755
4465,75441.6,114.391,116.454,2.953821
4477,75644.4,114.287,116.335,2.930644
4489,75847.2,114.192,116.218,2.918112
4501,76050,114.102,116.102,2.877524
4513,76252.8,114.021,115.988,2.828204
4525,76455.6,113.957,115.877,2.775178
4537,76658.4,113.898,115.769,2.699612
4549,76861.2,113.827,115.663,2.617639
4561,77064,113.744,115.559,2.567789
4573,77266.8,113.654,115.455,2.531024
4585,77469.6,113.5604,115.353,2.481922
4597,77672.4,113.463,115.252,2.458183
4609,77875.2,113.367,115.15,2.433539
4621,78078,113.282,115.049,2.412141
4633,78280.8,113.202,114.95,2.392487
4645,78483.6,113.112,114.851,2.370996
4657,78686.4,113.012,114.751,2.331749
4669,78889.2,112.911,114.652,2.317413
4681,79092,112.819,114.554,2.303948
4693,79294.8,112.751,114.456,2.284741
4705,79497.6,112.709,114.362,2.246148
4717,79700.4,112.676,114.27,2.196609
4729,79903.2,112.644,114.182,2.11647
4741,80106,112.613,114.097,2.015644
4753,80308.8,112.584,114.017,1.91736
4765,80511.6,112.552,113.938,1.807457
4777,80714.4,112.511,113.863,1.713123
4789,80917.2,112.472,113.79,1.630163
4801,81120,112.432,113.719,1.551643
4813,81322.8,112.384,113.649,1.482727
4825,81525.6,112.328,113.581,1.440398
4837,81728.4,112.273,113.513,1.395904
4849,81931.2,112.219,113.446,1.364709
4861,82134,112.159,113.379,1.346227
4873,82336.8,112.098,113.314,1.309193
4885,82539.6,112.04,113.247,1.303735
4897,82742.4,111.982,113.182,1.292175
4909,82945.2,111.921,113.118,1.282733
4921,83148,111.862,113.053,1.277538
4933,83350.8,111.809,112.989,1.26473
4945,83553.6,111.755,112.926,1.251594
4957,83756.4,111.701,112.864,1.234782
4969,83959.2,111.649,112.801,1.210644
4981,84162,111.595,112.739,1.197761
4993,84364.8,111.544,112.678,1.178762
5005,84567.6,111.494,112.617,1.152721
5017,84770.4,111.441,112.5577,1.147105
5029,84973.2,111.39,112.498,1.124071
5041,85176,111.346,112.44,1.100401
5053,85378.8,111.301,112.382,1.086182
5065,85581.6,111.25,112.325,1.07042
5077,85784.4,111.196,112.268,1.048214
5089,85987.2,111.145,112.211,1.038543
5101,86190,111.096,112.154,1.025798
5113,86392.8,111.05,112.099,1.00844
5125,86595.6,111.005,112.044,0.988306
5137,86798.4,110.956,111.99,0.971525
5149,87001.2,110.902,111.935,0.954429
5161,87204,110.85,111.881,0.945287
5173,87406.8,110.796,111.826,0.942898
5185,87609.6,110.737,111.772,0.946646
5197,87812.4,110.672,111.717,0.94149
5209,88015.2,110.612,111.661,0.937874
5221,88218,110.561,111.606,0.949626
5233,88420.8,110.504,111.551,0.958614
5245,88623.6,110.435,111.494,0.962391
5257,88826.4,110.359,111.438,0.9791
5269,89029.2,110.286,111.38,0.9946
5281,89232,110.222,111.32,1.008275
5293,89434.8,110.169,111.263,1.029963
5305,89637.6,110.115,111.204,1.019612
5317,89840.4,110.055,111.146,1.014488
5329,90043.2,109.992,111.088,1.020165
5341,90246,109.937,111.029,1.021837
5353,90448.8,109.888,110.971,1.013005
5365,90651.6,109.835,110.913,1.012502
5377,90854.4,109.778,110.856,1.00798
5389,91057.2,109.723,110.799,0.993867
5401,91260,109.6789,110.742,0.981907
5413,91462.8,109.639,110.686,0.971787
5425,91665.6,109.595,110.631,0.955457
5437,91868.4,109.551,110.577,0.921459
5449,92071.2,109.513,110.523,0.907567
5461,92274,109.479,110.471,0.884664
5473,92476.8,109.45,110.419,0.857716
5485,92679.6,109.426,110.37,0.821423
5497,92882.4,109.397,110.322,0.777647
5509,93085.2,109.362,110.274,0.745014
5521,93288,109.326,110.227,0.724777
5533,93490.8,109.297,110.182,0.699859
5545,93693.6,109.275,110.138,0.674294
5557,93896.4,109.254,110.094,0.636588
5569,94099.2,109.223,110.052,0.596988
5581,94302,109.18,110.01,0.578199
5593,94504.8,109.132,109.968,0.566867
5605,94707.6,109.092,109.926,0.569846
5617,94910.4,109.069,109.884,0.552898
5629,95113.2,109.052,109.845,0.53749
5641,95316,109.035,109.805,0.506186
5653,95518.8,109.02,109.768,0.484202
5665,95721.6,109.009,109.732,0.436024
5677,95924.4,109,109.698,0.400907
5689,96127.2,108.986,109.665,0.358907
5701,96330,108.962,109.633,0.33217
5713,96532.8,108.938,109.601,0.305107
5725,96735.6,108.924,109.57,0.288951
5737,96938.4,108.916,109.541,0.256242
5749,97141.2,108.911,109.513,0.224766
5761,97344,108.906,109.484,0.18953
5773,97546.8,108.904,109.459,0.158335
5785,97749.6,108.904,109.436,0.120256
5797,97952.4,108.905,109.413,0.07529
5809,98155.2,108.904,109.392,0.039994
5821,98358,108.897,109.371,0.004375
5833,98560.8,108.891,109.353,-0.007501
5845,98763.6,108.889,109.334,-0.029071
5857,98966.4,108.884,109.317,-0.069091
5869,99169.2,108.878,109.3,-0.080356
5881,99372,108.869,109.284,-0.107884
5893,99574.8,108.858,109.268,-0.130101
5905,99777.6,108.845,109.252,-0.133245
5917,99980.4,108.83,109.237,-0.138265
5929,100183.2,108.816,109.221,-0.146103
5941,100386,108.801,109.206,-0.158009
5953,100588.8,108.784,109.191,-0.146136
5965,100791.6,108.767,109.175,-0.155229
5977,100994.4,108.75,109.159,-0.154934
5989,101197.2,108.732,109.144,-0.14963
6001,101400,108.714,109.128,-0.146204
6013,101602.8,108.699,109.112,-0.139646
6025,101805.6,108.687,109.096,-0.146239
6037,102008.4,108.678,109.081,-0.150014
6049,102211.2,108.669,109.065,-0.155669
6061,102414,108.653,109.051,-0.16759
6073,102616.8,108.629,109.035,-0.163849
6085,102819.6,108.606,109.02,-0.165435
6097,103022.4,108.59,109.004,-0.161694
6109,103225.2,108.576,108.988,-0.145417
6121,103428,108.56,108.972,-0.146688
6133,103630.8,108.542,108.956,-0.149527
6145,103833.6,108.526,108.94,-0.142647
6157,104036.4,108.512,108.925,-0.148935
6169,104239.2,108.496,108.909,-0.151461
6181,104442,108.472,108.893,-0.140816
6193,104644.8,108.445,108.876,-0.140833
6205,104847.6,108.422,108.859,-0.123285
6217,105050.4,108.406,108.841,-0.122046
6229,105253.2,108.39,108.824,-0.114845
6241,105456,108.399,108.807,-0.117997
6253,105658.8,108.719,108.797,-0.186424
6265,105861.6,109.291,108.812,-0.501785
6277,106064.4,109.817,108.857,-1.01264
6289,106267.2,110.234,108.928,-1.640748
6301,106470,110.585,109.018,-2.227454
6313,106672.8,110.918,109.123,-2.746047
6325,106875.6,111.254,109.242,-3.198743
6337,107078.4,111.589,109.374,-3.600276
6349,107281.2,111.924,109.518,-3.964451
6361,107484,112.263,109.674,-4.300064
6373,107686.8,112.603,109.841,-4.613945
6385,107889.6,112.943,110.018,-4.917356
6397,108092.4,113.278,110.205,-5.201596
6409,108295.2,113.613,110.401,-5.4565
6421,108498,113.95,110.605,-5.70816
6433,108700.8,114.293,110.817,-5.950673
6445,108903.6,114.64,111.037,-6.184694
6457,109106.4,114.981,111.265,-6.39141
6469,109309.2,115.319,111.499,-6.612542
6481,109512,115.657,111.74,-6.803722
6493,109714.8,115.995,111.986,-6.982952
6505,109917.6,116.331,112.238,-7.169875
6517,110120.4,116.671,112.495,-7.329571
6529,110323.2,117.011,112.757,-7.494522
6541,110526,117.349,113.024,-7.653733
6553,110728.8,117.68,113.294,-7.798553
6565,110931.6,118.011,113.568,-7.927765
6577,111134.4,118.347,113.844,-8.043367
6589,111337.2,118.69,114.124,-8.163417
6601,111540,119.036,114.408,-8.279817
6613,111742.8,119.381,114.696,-8.403363
6625,111945.6,119.72,114.986,-8.533816
6637,112148.4,120.051,115.28,-8.661441
6649,112351.2,120.384,115.5754,-8.776835
6661,112554,120.722,115.872,-8.879488
6673,112756.8,121.066,116.171,-8.992593
6685,112959.6,121.41,116.474,-9.09883
6697,113162.4,121.751,116.779,-9.221106
6709,113365.2,122.089,117.085,-9.356427
6721,113568,122.424,117.394,-9.482525
6733,113770.8,122.752,117.704,-9.616009
6745,113973.6,123.086,118.014,-9.751577
6757,114176.4,123.425,118.326,-9.887687
6769,114379.2,123.768,118.639,-10.0355
6781,114582,124.116,118.953,-10.2022
6793,114784.8,124.462,119.27,-10.399
6805,114987.6,124.794,119.589,-10.6159
6817,115190.4,125.121,119.907,-10.8351
6829,115393.2,125.453,120.225,-11.0412
6841,115596,125.792,120.546,-11.234
6853,115798.8,126.136,120.866,-11.4251
6865,116001.6,126.484,121.188,-11.5691
6877,116204.4,126.829,121.511,-11.6715
6889,116407.2,127.166,121.836,-11.69831
6901,116610,127.502,122.162,-11.6494
6913,116812.8,127.834,122.488,-11.5514
6925,117015.6,128.161,122.813,-11.4256
6937,117218.4,128.49,123.139,-11.3128
6949,117421.2,128.827,123.464,-11.2376
6961,117624,129.17,123.79,-11.1946
6973,117826.8,129.516,124.117,-11.20006
6985,118029.6,129.859,124.444,-11.2189
6997,118232.4,130.199,124.772,-11.2361
7009,118435.2,130.534,125.1,-11.2727
7021,118638,130.868,125.429,-11.31
7033,118840.8,131.207,125.757,-11.3291
7045,119043.6,131.55,126.086,-11.3583
7057,119246.4,131.889,126.416,-11.3905
7069,119449.2,132.226,126.747,-11.4115
7081,119652,132.562,127.077,-11.4376
7093,119854.8,132.904,127.409,-11.4742
7105,120057.6,133.244,127.74,-11.4922
7117,120260.4,133.575,128.072,-11.5258
7129,120463.2,133.907,128.403,-11.5448
7141,120666,134.244,128.733,-11.563
7153,120868.8,134.587,129.064,-11.5754
7165,121071.6,134.931,129.397,-11.5991
7177,121274.4,135.278,129.73,-11.6277
7189,121477.2,135.62,130.063,-11.6725
7201,121680,135.955,130.398,-11.7073
7213,121882.8,136.29,130.733,-11.7374
7225,122085.6,136.62,131.068,-11.7626
7237,122288.4,136.949,131.4009,-11.7802
7249,122491.2,137.283,131.734,-11.7722
7261,122694,137.624,132.067,-11.7696
7273,122896.8,137.968,132.399,-11.7822
7285,123099.6,138.316,132.733,-11.8046
7297,123302.4,138.66,133.069,-11.8258
7309,123505.2,138.998,133.404,-11.8668
7321,123708,139.329,133.74,-11.8841
7333,123910.8,139.659,134.075,-11.9062
7345,124113.6,139.99,134.409,-11.9193
7357,124316.4,140.327,134.743,-11.916
7369,124519.2,140.668,135.076,-11.9242
7381,124722,141.017,135.411,-11.9346
7393,124924.8,141.364,135.747,-11.9613
7405,125127.6,141.702,136.083,-11.9984
7417,125330.4,142.036,136.42,-12.0354
7429,125533.2,142.366,136.756,-12.05672
7441,125736,142.694,137.091,-12.0689
7453,125938.8,143.027,137.425,-12.0609
7465,126141.6,143.367,137.759,-12.0522
7477,126344.4,143.712,138.092,-12.0661
7489,126547.2,144.06,138.428,-12.0822
7501,126750,144.406,138.764,-12.1166
7513,126952.8,144.743,139.101,-12.1455
7525,127155.6,145.076,139.438,-12.1788
7537,127358.4,145.405,139.774,-12.2042
7549,127561.2,145.734,140.109,-12.2036
7561,127764,146.071,140.443,-12.1962
7573,127966.8,146.413,140.777,-12.1929
7585,128169.6,146.759,141.112,-12.2092
7597,128372.4,147.107,141.449,-12.21451
7609,128575.2,147.451,141.786,-12.2477
7621,128778,147.788,142.124,-12.2798
7633,128980.8,148.12,142.461,-12.3012
7645,129183.6,148.454,142.799,-12.308
7657,129386.4,148.787,143.136,-12.3041
7669,129589.2,149.116,143.474,-12.2696
7681,129792,149.45,143.809,-12.2278
7693,129994.8,149.789,144.144,-12.1621
7705,130197.6,150.132,144.48,-12.103
7717,130400.4,150.478,144.816,-12.0255
7729,130603.2,150.82,145.153,-11.9165
7741,130806,151.158,145.491,-11.7817
7753,131008.8,151.495,145.828,-11.615
7765,131211.6,151.827,146.165,-11.3934
7777,131414.4,152.158,146.501,-11.0993
7789,131617.2,152.494,146.837,-10.7222
7801,131820,152.835,147.173,-10.2589
7813,132022.8,153.18,147.51,-9.69372
7825,132225.6,153.523,147.847,-8.992365
7837,132428.4,153.861,148.185,-8.153642
7849,132631.2,154.193,148.522,-7.106004
7861,132834,154.53,148.858,-5.812336
7873,133036.8,154.871,149.195,-4.237014
7885,133239.6,155.215,149.534,-2.344901
7897,133442.4,155.558,149.872,-0.077244
7909,133645.2,155.894,150.21,2.589002
7921,133848,156.229,150.55,5.699012
7933,134050.8,156.56,150.89,9.232388
7945,134253.6,156.891,151.227,13.0457
7957,134456.4,157.226,151.565,16.8923
7969,134659.2,157.565,151.903,20.3952
7981,134862,157.909,152.241,23.027
7993,135064.8,158.253,152.58,24.18772
8005,135267.6,158.595,152.919,23.39833
8017,135470.4,158.932,153.257,20.47838
8029,135673.2,159.263,153.596,15.6692
8041,135876,159.596,153.934,9.758946
8053,136078.8,159.934,154.271,3.849471
8065,136281.6,160.277,154.608,-1.268232
8077,136484.4,160.62,154.945,-5.109318
8089,136687.2,160.963,155.283,-7.628399
8101,136890,161.3,155.621,-9.109185
8113,137092.8,161.634,155.959,-9.896875
8125,137295.6,161.971,156.297,-10.38021
8137,137498.4,162.31,156.635,-10.6486
8149,137701.2,162.646,156.973,-10.8509
8161,137904,162.982,157.312,-11.0213
8173,138106.8,163.322,157.65,-11.1411
8185,138309.6,163.666,157.989,-11.2416
8197,138512.4,164.009,158.328,-11.32
8209,138715.2,164.344,158.667,-11.4381
8221,138918,164.678,159.007,-11.4908
8233,139120.8,165.012,159.346,-11.5679
8245,139323.6,165.342,159.684,-11.6335
8257,139526.4,165.676,160.0222,-11.6687
8269,139729.2,166.017,160.36,-11.6667
8281,139932,166.361,160.699,-11.6544
8293,140134.8,166.703,161.037,-11.719
8305,140337.6,167.048,161.376,-11.7598
8317,140540.4,167.386,161.715,-11.75028
8329,140743.2,167.722,162.054,-11.7639
8341,140946,168.054,162.394,-11.7861
8353,141148.8,168.385,162.732,-11.7998
8365,141351.6,168.719,163.07,-11.8244
8377,141554.4,169.058,163.408,-11.8266
8389,141757.2,169.401,163.746,-11.8602
8401,141960,169.743,164.0838,-11.8452
8413,142162.8,170.081,164.422,-11.85398
8425,142365.6,170.421,164.76,-11.7823
8437,142568.4,170.762,165.099,-11.8179
8449,142771.2,171.097,165.438,-11.9078
8461,142974,171.43,165.776,-11.9738
8473,143176.8,171.767,166.115,-11.9898
8485,143379.6,172.108,166.453,-12.0175
8497,143582.4,172.451,166.792,-12.1095
8509,143785.2,172.794,167.131,-12.1035
8521,143988,173.133,167.471,-12.1269
8533,144190.8,173.47,167.81,-12.17787
8545,144393.6,173.803,168.15,-12.2983
8557,144596.4,174.133,168.491,-12.4074
8569,144799.2,174.466,168.828,-12.6041
8581,145002,174.806,169.166,-12.9352
8593,145204.8,175.147,169.505,-13.4328
8605,145407.6,175.488,169.844,-14.41
8617,145610.4,175.826,170.182,-15.63725
8629,145813.2,176.166,170.52,-17.3212
8641,146016,176.508,170.859,-19.9787
8653,146218.8,176.847,171.198,-15.9469
8665,146421.6,177.178,171.538,-2.609315
8677,146624.4,177.513,171.877,-5.354701
8689,146827.2,177.851,172.215,-9.127553
8701,147030,178.193,172.555,-11.0362
8713,147232.8,178.536,172.894,-11.8557
8725,147435.6,178.876,173.233,-12.3036
8737,147638.4,179.213,173.574,-12.50338
8749,147841.2,179.546,173.913,-12.5998
8761,148044,179.878,174.252,-12.729
8773,148246.8,180.216,174.59,-12.8056
8785,148449.6,180.557,174.929,-13.2365
8797,148652.4,180.897,175.268,-14.1021
8809,148855.2,181.239,175.606,-16.6383
8821,149058,181.581,175.946,-25.5528
8833,149260.8,181.918,176.284,-50.9307
8845,149463.6,182.251,176.622,-89.5787
8857,149666.4,182.584,176.958,-122.036
8869,149869.2,182.921,177.292,-110.487
8881,150072,183.261,177.628,-126.942
8893,150274.8,183.605,177.964,-82.1986
8905,150477.6,183.946,178.304,-44.2111
8917,150680.4,184.281,178.645,-27.9585
8929,150883.2,184.616,178.9858,-20.7071
8941,151086,184.954,179.326,-17.594
8953,151288.8,185.291,179.667,-16.2116
8965,151491.6,185.627,180.007,-15.5979
8977,151694.4,185.967,180.348,-15.3169
8989,151897.2,186.308,180.688,-15.2297
9001,152100,186.649,181.029,-15.1706
9013,152302.8,186.99,181.37,-15.2258
9025,152505.6,187.327,181.712,-15.276
9037,152708.4,187.662,182.052,-15.4482
9049,152911.2,187.994,182.393,-15.4075
9061,153114,188.326,182.734,-15.3115
9073,153316.8,188.663,183.073,-15.4863
9085,153519.6,189.005,183.413,-15.4043
9097,153722.4,189.349,183.752,-15.4988
9109,153925.2,189.691,184.092,-15.5183
9121,154128,190.029,184.432,-15.4629
9133,154330.8,190.362,184.773,-15.5446
9145,154533.6,190.695,185.114,-15.6123
9157,154736.4,191.0325,185.453,-15.5323
9169,154939.2,191.371,185.793,-15.5781
9181,155142,191.714,186.132,-15.6722
9193,155344.8,192.057,186.472,-15.6325
9205,155547.6,192.394,186.811,-15.67614
9217,155750.4,192.73,187.152,-15.7888
9229,155953.2,193.068,187.4914,-15.8855
9241,156156,193.408,187.832,-15.7933
9253,156358.8,193.749,188.173,-15.7988
9265,156561.6,194.087,188.514,-15.8375
9277,156764.4,194.424,188.855,-15.8418
9289,156967.2,194.757,189.196,-15.916
9301,157170,195.094,189.537,-15.9676
9313,157372.8,195.432,189.877,-15.9869
9325,157575.6,195.767,190.217,-15.908
9337,157778.4,196.1,190.557,-15.9689
9349,157981.2,196.438,190.896,-16.0337
9361,158184,196.78,191.236,-15.9467
9373,158386.8,197.123,191.576,-16.0212
9385,158589.6,197.465,191.915,-16.0767
9397,158792.4,197.803,192.255,-16.2283
9409,158995.2,198.138,192.595,-16.3345
9421,159198,198.47,192.935,-16.3379
9433,159400.8,198.807,193.275,-16.3776
9445,159603.6,199.146,193.614,-16.316
9457,159806.4,199.489,193.953,-16.1252
9469,160009.2,199.83,194.293,-16.2721
9481,160212,200.167,194.633,-16.4371
9493,160414.8,200.502,194.973,-16.3503
9505,160617.6,200.84,195.313,-16.4402
9517,160820.4,201.18,195.653,-16.651
9529,161023.2,201.521,195.992,-16.6646
9541,161226,201.857,196.333,-16.693
9553,161428.8,202.191,196.673,-16.677
9565,161631.6,202.525,197.012,-16.71144
9577,161834.4,202.863,197.352,-16.7397
9589,162037.2,203.202,197.691,-16.7393
9601,162240,203.542,198.03,-16.7484
9613,162442.8,203.8785,198.37,-16.5695
9625,162645.6,204.215,198.709,-16.7319
9637,162848.4,204.555,199.047,-16.7824
9649,163051.2,204.895,199.386,-16.8853
9661,163254,205.236,199.725,-16.9012
9673,163456.8,205.579,200.065,-16.9205
9685,163659.6,205.917,200.405,-17.2162
9697,163862.4,206.254,200.745,-17.1382
9709,164065.2,206.588,201.086,-17.371
9721,164268,206.921,201.426,-17.42175
9733,164470.8,207.258,201.766,-17.4877
9745,164673.6,207.599,202.105,-17.35624
9757,164876.4,207.94,202.445,-17.3694
9769,165079.2,208.282,202.785,-17.2958
9781,165282,208.62,203.126,-17.19392
9793,165484.8,208.957,203.466,-17.1793
9805,165687.6,209.29,203.807,-17.4626
9817,165890.4,209.626,204.147,-17.4414
9829,166093.2,209.963,204.487,-17.2562
9841,166296,210.3,204.826,-17.4767
9853,166498.8,210.639,205.166,-17.4564
9865,166701.6,210.977,205.505,-17.6278
9877,166904.4,211.317,205.844,-17.6388
9889,167107.2,211.656,206.183,-17.5008
9901,167310,211.993,206.523,-17.4932
9913,167512.8,212.329,206.862,-17.737
9925,167715.6,212.667,207.202,-17.811
9937,167918.4,213.006,207.541,-17.952
9949,168121.2,213.343,207.88,-18.1275
9961,168324,213.684,208.219,-18.2371
9973,168526.8,214.023,208.559,-18.06819
9985,168729.6,214.362,208.898,-18.0021
9997,168932.4,214.7,209.238,-18.1715
10009,169135.2,215.037,209.577,-18.1815
10021,169338,215.375,209.917,-18.261
10033,169540.8,215.711,210.257,-18.3362
10045,169743.6,216.048,210.596,-18.48202
10057,169946.4,216.385,210.936,-18.6167
10069,170149.2,216.726,211.275,-18.6473
10081,170352,217.066,211.614,-18.5519
10093,170554.8,217.407,211.954,-18.5415
10105,170757.6,217.7489,212.294,-18.6274
10117,170960.4,218.085,212.635,-18.92
10129,171163.2,218.417,212.975,-18.8072
10141,171366,218.751,213.315,-18.90171
10153,171568.8,219.092,213.655,-18.8255
10165,171771.6,219.431,213.994,-18.8359
10177,171974.4,219.772,214.335,-18.8122
10189,172177.2,220.114,214.676,-19.0337
10201,172380,220.452,215.017,-19.24445
10213,172582.8,220.785,215.357,-19.3065
10225,172785.6,221.117,215.698,-19.4417
10237,172988.4,221.455,216.038,-19.5449
10249,173191.2,221.792,216.378,-19.595
10261,173394,222.13,216.718,-19.5305
10273,173596.8,222.468,217.057,-19.8384
10285,173799.6,222.807,217.396,-19.55328
10297,174002.4,223.147,217.736,-19.6799
10309,174205.2,223.488,218.075,-19.7843
10321,174408,223.828,218.415,-20.01049
10333,174610.8,224.168,218.755,-20.0519
10345,174813.6,224.503,219.096,-20.2057
10357,175016.4,224.842,219.436,-20.16056
10369,175219.2,225.182,219.777,-20.273
10381,175422,225.521,220.118,-20.2462
10393,175624.8,225.859,220.459,-20.4382
10405,175827.6,226.199,220.8,-20.7507
10417,176030.4,226.533,221.142,-20.7983
10429,176233.2,226.866,221.482,-20.857
10441,176436,227.203,221.823,-20.8781
10453,176638.8,227.544,222.164,-20.8159
10465,176841.6,227.88,222.504,-20.5962
10477,177044.4,228.217,222.845,-20.9492
10489,177247.2,228.553,223.186,-21.1303
10501,177450,228.894,223.526,-21.1758
10513,177652.8,229.235,223.866,-21.1285
10525,177855.6,229.575,224.207,-21.35773
10537,178058.4,229.912,224.548,-21.5319
10549,178261.2,230.247,224.888,-21.5683
10561,178464,230.582,225.229,-21.6838
10573,178666.8,230.919,225.569,-21.7028
10585,178869.6,231.259,225.909,-21.8722
10597,179072.4,231.594,226.249,-22.1246
10609,179275.2,231.933,226.589,-22.2175
10621,179478,232.274,226.929,-22.2839
10633,179680.8,232.614,227.268,-22.461
10645,179883.6,232.953,227.608,-22.6605
10657,180086.4,233.291,227.948,-22.6163
10669,180289.2,233.631,228.289,-22.8482
10681,180492,233.974,228.629,-23.0325
10693,180694.8,234.315,228.97,-23.22072
10705,180897.6,234.649,229.312,-23.3573
10717,181100.4,234.984,229.654,-23.4741
10729,181303.2,235.314,229.995,-23.5792
10741,181506,235.648,230.335,-23.7268
10753,181708.8,235.984,230.675,-23.8483
10765,181911.6,236.324,231.014,-23.7985
10777,182114.4,236.661,231.353,-24.1234
10789,182317.2,237,231.692,-24.2101
10801,182520,237.342,232.031,-24.4328
10813,182722.8,237.683,232.371,-24.48624
10825,182925.6,238.023,232.71,-24.6625
10837,183128.4,238.362,233.05,-24.7782
10849,183331.2,238.701,233.39,-24.9295
10861,183534,239.037,233.729,-24.8653
10873,183736.8,239.374,234.07,-25.2412
10885,183939.6,239.711,234.409,-25.5296
10897,184142.4,240.049,234.749,-25.7795
10909,184345.2,240.388,235.089,-25.9308
10921,184548,240.725,235.43,-25.9295
10933,184750.8,241.061,235.769,-26.2773
10945,184953.6,241.4,236.109,-26.5065
10957,185156.4,241.739,236.449,-26.6305
10969,185359.2,242.077,236.788,-26.8262
10981,185562,242.413,237.129,-27.1766
10993,185764.8,242.749,237.468,-27.507
11005,185967.6,243.087,237.807,-27.6687
11017,186170.4,243.428,238.147,-27.8844
11029,186373.2,243.772,238.486,-28.159
11041,186576,244.113,238.827,-28.4447
11053,186778.8,244.45,239.168,-28.8197
11065,186981.6,244.785,239.508,-28.9914
11077,187184.4,245.117,239.849,-29.3425
11089,187387.2,245.451,240.189,-29.5802
11101,187590,245.79,240.528,-29.8773
11113,187792.8,246.129,240.867,-30.1716
11125,187995.6,246.469,241.206,-30.4485
11137,188198.4,246.808,241.545,-30.7608
11149,188401.2,247.148,241.885,-30.9846
11161,188604,247.488,242.225,-31.40602
11173,188806.8,247.827,242.565,-31.912
11185,189009.6,248.164,242.906,-32.2989
11197,189212.4,248.501,243.246,-32.6654
11209,189415.2,248.839,243.585,-32.9596
11221,189618,249.174,243.927,-33.3174
11233,189820.8,249.509,244.266,-33.8508
11245,190023.6,249.846,244.606,-34.1902
11257,190226.4,250.183,244.945,-34.6782
11269,190429.2,250.52,245.283,-35.07245
11281,190632,250.86,245.622,-35.4387
11293,190834.8,251.2,245.96,-35.8166
11305,191037.6,251.541,246.299,-36.2575
11317,191240.4,251.882,246.638,-36.85959
11329,191443.2,252.221,246.977,-37.4025
11341,191646,252.557,247.318,-38.0945
11353,191848.8,252.893,247.657,-38.6888
11365,192051.6,253.229,247.997,-39.2544
11377,192254.4,253.569,248.336,-39.9899
11389,192457.2,253.907,248.676,-40.6611
11401,192660,254.245,249.015,-41.2755
11413,192862.8,254.584,249.354,-42.11
11425,193065.6,254.923,249.695,-42.7287
11437,193268.4,255.261,250.035,-43.58363
11449,193471.2,255.601,250.374,-44.45323
11461,193674,255.937,250.714,-45.2456
11473,193876.8,256.273,251.054,-45.9385
11485,194079.6,256.608,251.394,-46.7384
11497,194282.4,256.945,251.733,-47.7597
11509,194485.2,257.284,252.072,-48.5263
11521,194688,257.622,252.411,-49.46414
11533,194890.8,257.963,252.75,-50.5449
11545,195093.6,258.304,253.089,-51.6935
11557,195296.4,258.643,253.428,-52.77486
11569,195499.2,258.979,253.7685,-53.9312
11581,195702,259.314,254.107,-55.34502
11593,195904.8,259.652,254.447,-56.6535
11605,196107.6,259.99,254.786,-58.1093
11617,196310.4,260.327,255.125,-59.531
11629,196513.2,260.666,255.464,-60.9161
11641,196716,261.006,255.803,-62.5997
11653,196918.8,261.349,256.143,-64.1752
11665,197121.6,261.69,256.483,-65.9324
11677,197324.4,262.026,256.823,-67.7833
11689,197527.2,262.36,257.163,-69.7708
11701,197730,262.692,257.503,-71.75188
11713,197932.8,263.027,257.843,-73.8177
11725,198135.6,263.365,258.182,-75.9371
11737,198338.4,263.705,258.519,-78.116
11749,198541.2,264.041,258.858,-80.4833
11761,198744,264.379,259.196,-83.0721
11773,198946.8,264.721,259.533,-85.6822
11785,199149.6,265.061,259.872,-88.3287
11797,199352.4,265.403,260.21,-91.27496
11809,199555.2,265.74,260.549,-94.367
11821,199758,266.076,260.888,-97.6356
11833,199960.8,266.412,261.227,-101.02
11845,200163.6,266.749,261.565,-104.529
11857,200366.4,267.086,261.903,-108.218
11869,200569.2,267.424,262.241,-111.7
11881,200772,267.762,262.579,-115.33
11893,200974.8,268.101,262.917,-119.001
11905,201177.6,268.438,263.255,-122.797
11917,201380.4,268.777,263.591,-127.016
11929,201583.2,269.12,263.929,-131.327
11941,201786,269.46,264.268,-135.585
11953,201988.8,269.8,264.605,-139.967
11965,202191.6,270.135,264.945,-144.349
11977,202394.4,270.469,265.283,-148.621
11989,202597.2,270.805,265.621,-152.766
12001,202800,271.142,265.9592,-156.721
12013,203002.8,271.479,266.297,-160.641
12025,203205.6,271.819,266.635,-164.147
12037,203408.4,272.158,266.972,-167.032
12049,203611.2,272.497,267.31,-168.496
12061,203814,272.837,267.649,-168.588
12073,204016.8,273.173,267.987,-169.625
12085,204219.6,273.512,268.326,-169.494
12097,204422.4,273.85,268.665,-163.608
12109,204625.2,274.192,269.004,-155.612
12121,204828,274.534,269.344,-145.438
12133,205030.8,274.873,269.685,-131.94
12145,205233.6,275.207,270.027,-95.409
12157,205436.4,275.54,270.369,-66.1393
12169,205639.2,275.874,270.713,-50.5658
12181,205842,276.209,271.055,-42.292
12193,206044.8,276.55,271.397,-37.9041
12205,206247.6,276.892,271.739,-35.6175
12217,206450.4,277.232,272.081,-34.3998
12229,206653.2,277.568,272.424,-33.7832
12241,206856,277.905,272.766,-33.4347
12253,207058.8,278.24,273.108,-33.2581
12265,207261.6,278.577,273.449,-33.1022
12277,207464.4,278.915,273.79,-32.9924
12289,207667.2,279.252,274.131,-32.9341
12301,207870,279.59,274.471,-32.9168
12313,208072.8,279.931,274.81,-32.854
12325,208275.6,280.269,275.152,-32.8407
12337,208478.4,280.606,275.491,-32.7941
12349,208681.2,280.945,275.831,-32.803
12361,208884,281.285,276.17,-32.7896
12373,209086.8,281.625,276.51,-32.74081
12385,209289.6,281.965,276.85,-32.7327
12397,209492.4,282.302,277.191,-32.77
12409,209695.2,282.637,277.531,-32.7946
12421,209898,282.974,277.871,-32.7533
12433,210100.8,283.312,278.211,-32.77904
12445,210303.6,283.653,278.55,-32.731
12457,210506.4,283.993,278.891,-32.7104
12469,210709.2,284.333,279.231,-32.7536
12481,210912,284.667,279.571,-32.7769
12493,211114.8,285.002,279.911,-32.738
12505,211317.6,285.339,280.252,-32.7435
12517,211520.4,285.677,280.591,-32.7059
12529,211723.2,286.014,280.931,-32.7194
12541,211926,286.3519,281.269,-32.7412
12553,212128.8,286.692,281.61,-32.7142
12565,212331.6,287.03,281.949,-32.6804
12577,212534.4,287.367,282.288,-32.688
12589,212737.2,287.705,282.628,-32.66126
12601,212940,288.045,282.966,-32.65
12613,213142.8,288.384,283.305,-32.6623
12625,213345.6,288.723,283.645,-32.6678
12637,213548.4,289.058,283.984,-32.6655
12649,213751.2,289.396,284.324,-32.6407
12661,213954,289.733,284.663,-32.6441
12673,214156.8,290.072,285.001,-32.65018
12685,214359.6,290.413,285.34,-32.65405
12697,214562.4,290.754,285.68,-32.652
12709,214765.2,291.092,286.02,-32.6431
12721,214968,291.428,286.359,-32.6627
12733,215170.8,291.763,286.699,-32.6588
12745,215373.6,292.098,287.038,-32.65955
12757,215576.4,292.437,287.378,-32.651
12769,215779.2,292.775,287.716,-32.6504
12781,215982,293.115,288.056,-32.6482
12793,216184.8,293.452,288.395,-32.6351
12805,216387.6,293.787,288.734,-32.5873
12817,216590.4,294.123,289.071,-32.5641
12829,216793.2,294.462,289.409,-32.5542
12841,216996,294.8063,289.748,-32.5263
12853,217198.8,295.148,290.086,-32.5107
12865,217401.6,295.488,290.426,-32.5354
12877,217604.4,295.825,290.765,-32.5637
12889,217807.2,296.157,291.104,-32.5553
12901,218010,296.493,291.442,-32.54794
12913,218212.8,296.832,291.781,-32.504
12925,218415.6,297.173,292.119,-32.4709
12937,218618.4,297.512,292.456,-32.4847
12949,218821.2,297.849,292.794,-32.4859
12961,219024,298.188,293.131,-32.4642
12973,219226.8,298.525,293.468,-32.4487
12985,219429.6,298.862,293.804,-32.4239
12997,219632.4,299.194,294.139,-32.3653
13009,219835.2,299.222,294.465,-32.2533
13021,220038,299.194,294.765,-31.7532
13033,220240.8,299.175,295.042,-30.6593
13045,220443.6,299.168,295.297,-29.1019
13057,220646.4,299.165,295.534,-27.3163
13069,220849.2,299.165,295.752,-25.4391
13081,221052,299.166,295.953,-23.589
13093,221254.8,299.167,296.14,-21.8056
13105,221457.6,299.165,296.312,-20.1229
13117,221660.4,299.163,296.47,-18.5659
13129,221863.2,299.161,296.615,-17.0894
13141,222066,299.158,296.75,-15.6999
13153,222268.8,299.158,296.873,-14.413
13165,222471.6,299.157,296.986,-13.2022
13177,222674.4,299.157,297.091,-12.0836
13189,222877.2,299.156,297.186,-11.0705
13201,223080,299.154,297.275,-10.1454
13213,223282.8,299.155,297.357,-9.278643
13225,223485.6,299.155,297.431,-8.470797
13237,223688.4,299.154,297.5,-7.737291
13249,223891.2,299.153,297.562,-7.055789
13261,224094,299.153,297.621,-6.426421
13273,224296.8,299.154,297.675,-5.847638
13285,224499.6,299.153,297.723,-5.327828
13297,224702.4,299.153,297.769,-4.848259
13309,224905.2,299.154,297.811,-4.391062
13321,225108,299.155,297.849,-3.978039
13333,225310.8,299.156,297.885,-3.610888
13345,225513.6,299.1525,297.918,-3.276214
13357,225716.4,299.15,297.947,-2.944663
13369,225919.2,299.153,297.975,-2.630814
13381,226122,299.157,298,-2.370884
13393,226324.8,299.159,298.025,-2.132937
13405,226527.6,299.155,298.048,-1.934138
13417,226730.4,299.151,298.067,-1.721279
13429,226933.2,299.145,298.086,-1.514094
13441,227136,299.145,298.102,-1.296623
13453,227338.8,299.148,298.116,-1.096836
13465,227541.6,299.15,298.13,-0.944766
13477,227744.4,299.151,298.144,-0.791842
13489,227947.2,299.152,298.156,-0.647676
13501,228150,299.155,298.166,-0.535778
13513,228352.8,299.154,298.177,-0.4685
13525,228555.6,299.151,298.187,-0.37411
13537,228758.4,299.148,298.195,-0.293623
13549,228961.2,299.147,298.202,-0.206787
13561,229164,299.144,298.209,-0.107082
13573,229366.8,299.146,298.214,-0.019048
13585,229569.6,299.15,298.219,0.067269
13597,229772.4,299.152,298.224,0.126472
13609,229975.2,299.153,298.229,0.175378
13621,230178,299.149,298.234,0.222911
13633,230380.8,299.149,298.238,0.251396
13645,230583.6,299.149,298.241,0.273017
13657,230786.4,299.15,298.245,0.310768
13669,230989.2,299.149,298.248,0.36036
13681,231192,299.149,298.251,0.391075
13693,231394.8,299.151,298.253,0.430542
13705,231597.6,299.151,298.256,0.456967
13717,231800.4,299.152,298.259,0.483563
13729,232003.2,299.153,298.261,0.487681
13741,232206,299.151,298.263,0.477899
13753,232408.8,299.15,298.264,0.50072
13765,232611.6,299.148,298.266,0.522169
13777,232814.4,299.147,298.267,0.577766
13789,233017.2,299.146,298.268,0.592351
13801,233220,299.146,298.268,0.605735
13813,233422.8,299.148,298.269,0.631303
13825,233625.6,299.15,298.27,0.664935
13837,233828.4,299.153,298.271,0.672313
13849,234031.2,299.153,298.272,0.671111
13861,234234,299.154,298.273,0.66253
13873,234436.8,299.149,298.274,0.669566
13885,234639.6,299.146,298.274,0.672311
13897,234842.4,299.146,298.275,0.674198
13909,235045.2,299.149,298.275,0.685352
13921,235248,299.152,298.275,0.689985
13933,235450.8,299.154,298.275,0.690842
13945,235653.6,299.154,298.276,0.697877
13957,235856.4,299.1547,298.277,0.695646
13969,236059.2,299.154,298.279,0.672136
13981,236262,299.154,298.28,0.667845
13993,236464.8,299.15,298.281,0.663555
14005,236667.6,299.147,298.282,0.664584
14017,236870.4,299.146,298.282,0.676767
14029,237073.2,299.149,298.282,0.684661
14041,237276,299.152,298.282,0.70508
14053,237478.8,299.154,298.283,0.716919
14065,237681.6,299.154,298.284,0.709197
14077,237884.4,299.153,298.285,0.701132
14089,238087.2,299.15,298.286,0.689463
14101,238290,299.149,298.286,0.666812
14113,238492.8,299.15,298.286,0.668699
14125,238695.6,299.151,298.287,0.676936
14137,238898.4,299.152,298.287,0.681397
14149,239101.2,299.152,298.288,0.686029
14161,239304,299.149,298.288,0.687745
14173,239506.8,299.146,298.29,0.67865
14185,239709.6,299.145,298.289,0.687745
14197,239912.4,299.144,298.288,0.692721
14209,240115.2,299.148,298.287,0.726011
14221,240318,299.151,298.287,0.769081
14233,240520.8,299.153,298.287,0.792589
14245,240723.6,299.151,298.287,0.762561
14257,240926.4,299.148,298.288,0.739223
14269,241129.2,299.146,298.287,0.736307
14281,241332,299.146,298.286,0.728929
14293,241534.8,299.149,298.286,0.751408
14305,241737.6,299.151,298.285,0.767881
14317,241940.4,299.152,298.286,0.76462
14329,242143.2,299.151,298.286,0.763076
14341,242346,299.145,298.285,0.762219
14353,242548.8,299.144,298.284,0.769255
14365,242751.6,299.142,298.283,0.77406
14377,242954.4,299.147,298.282,0.803747
14389,243157.2,299.15,298.28,0.854369
14401,243360,299.151,298.28,0.859002
14413,243562.8,299.151,298.28,0.847677
14425,243765.6,299.145,298.28,0.825713
14437,243968.4,299.144,298.278,0.819709
14449,244171.2,299.143,298.276,0.828118
14461,244374,299.145,298.273,0.861067
14473,244576.8,299.147,298.272,0.898476
14485,244779.6,299.148,298.27,0.898992
14497,244982.4,299.15,298.268,0.902254
14509,245185.2,299.147,298.267,0.889385
14521,245388,299.145,298.266,0.895564
14533,245590.8,299.144,298.264,0.894879
14545,245793.6,299.147,298.262,0.900543
14557,245996.4,299.15,298.261,0.912041
14569,246199.2,299.153,298.26,0.903806
14581,246402,299.152,298.26,0.91925
14593,246604.8,299.149,298.259,0.87738
14605,246807.6,299.146,298.259,0.872748
14617,247010.4,299.145,298.257,0.83963
14629,247213.2,299.149,298.256,0.848898
14641,247416,299.152,298.256,0.852673
14653,247618.8,299.154,298.255,0.865715
14665,247821.6,299.153,298.255,0.855591
14677,248024.4,299.149,298.255,0.823502
14689,248227.2,299.148,298.254,0.820414
14701,248430,299.146,298.254,0.796733
14713,248632.8,299.15,298.253,0.813894
14725,248835.6,299.153,298.253,0.824705
14737,249038.4,299.158,298.253,0.838948
14749,249241.2,299.16,298.254,0.803254
14761,249444,299.158,298.256,0.754862
14773,249646.8,299.16,298.257,0.724145
14785,249849.6,299.16,298.26,0.706297
14797,250052.4,299.158,298.261,0.647781
14809,250255.2,299.153,298.264,0.607454
14821,250458,299.148,298.265,0.573477
14833,250660.8,299.146,298.266,0.572962
14845,250863.6,299.148,298.267,0.600932
14857,251066.4,299.15,298.267,0.616204
14869,251269.2,299.153,298.267,0.648807
14881,251472,299.154,298.269,0.666308
14893,251674.8,299.154,298.27,0.6579
14905,251877.6,299.151,298.271,0.646917
14917,252080.4,299.148,298.272,0.643656
14929,252283.2,299.148,298.273,0.648288
14941,252486,299.148,298.273,0.654809
14953,252688.8,299.148,298.274,0.673684
14954,252705.7,299.148,298.273,0.6754