File: i_data/smallHF/Blank.csv
"Blank - Small HF - -196C to 46C, 0.1 K/min.",,,,
Creation Date : 10/20/2022 3:05:21 PM,,,,
User : admin,,,,
,,,,
HeatFlow :,,,,
 Initial Mass : 0 mg,,,,
 Molar Mass : 17 g/mol,,,,
,,,,
Index,Time(s),Furnace Temperature(K),Sample Temperature(K),HeatFlow(mW)
1,0,297.679,297.693,60.0111
13,212.4,297.683,297.698,60.01075
25,424.8,297.686,297.701,42.9747
37,637.2,297.687,297.702,17.3277
49,849.6,297.682,297.702,6.96114
61,1062,297.656,297.701,2.776842
73,1274.4,297.595,297.698,1.096388
85,1486.8,297.477,297.687,0.426735
97,1699.2,297.284,297.664,0.162472
109,1911.6,297.001,297.624,0.058345
121,2124,296.617,297.559,0.019164
133,2336.4,296.12,297.462,0.007121
145,2548.8,295.469,297.325,0.00699
157,2761.2,294.624,297.136,-0.005881
169,2973.6,293.573,296.882,-0.002423
181,3186,292.341,296.552,0.014966
193,3398.4,290.977,296.139,0.047398
205,3610.8,289.509,295.641,0.068216
217,3823.2,287.968,295.055,0.10804
229,4035.6,286.377,294.387,0.168074
241,4248,284.773,293.641,0.223953
253,4460.4,283.176,292.828,0.200263
265,4672.8,281.6,291.954,0.132379
277,4885.2,280.045,291.019,0.120825
289,5097.6,278.511,290.03,0.167647
301,5310,276.998,288.995,0.213238
313,5522.4,275.506,287.921,0.242323
325,5734.8,274.035,286.814,0.274798
337,5947.2,272.584,285.678,0.296501
349,6159.6,271.153,284.518,0.317078
361,6372,269.743,283.339,0.326499
373,6584.4,268.351,282.143,0.333666
385,6796.8,266.978,280.934,0.363147
397,7009.2,265.619,279.714,0.390632
409,7221.6,264.282,278.487,0.448191
421,7434,262.968,277.253,0.500635
433,7646.4,261.678,276.016,0.459649
445,7858.8,260.407,274.779,0.493987
457,8071.2,259.157,273.543,0.587273
469,8283.6,257.924,272.309,0.59067
481,8496,256.707,271.079,0.622577
493,8708.4,255.504,269.853,0.648615
505,8920.8,254.314,268.633,0.915167
517,9133.2,253.137,267.418,0.856464
529,9345.6,251.975,266.21,0.78051
541,9558,250.822,265.009,0.628309
553,9770.4,249.682,263.815,0.656405
565,9982.8,248.549,262.629,0.68687
577,10195.2,247.423,261.45,0.561786
589,10407.6,246.305,260.277,0.56019
601,10620,245.195,259.113,0.660268
613,10832.4,244.102,257.957,0.637945
625,11044.8,243.02,256.807,0.598085
637,11257.2,241.946,255.668,0.559584
649,11469.6,240.878,254.535,0.424507
661,11682,239.821,253.411,0.72324
673,11894.4,238.776,252.295,0.532657
685,12106.8,237.744,251.188,0.258668
697,12319.2,236.718,250.09,0.363351
709,12531.6,235.696,249,0.234787
721,12744,234.679,247.918,0.45014
733,12956.4,233.671,246.844,0.494119
745,13168.8,232.674,245.777,0.389803
757,13381.2,231.69,244.719,0.578136
769,13593.6,230.72,243.67,0.59917
781,13806,229.759,242.63,0.300743
793,14018.4,228.804,241.597,-0.272385
805,14230.8,227.857,240.574,-0.267905
817,14443.2,226.918,239.559,-0.14126
829,14655.6,225.985,238.552,0.061595
841,14868,225.061,237.554,0.420232
853,15080.4,224.144,236.562,0.512768
865,15292.8,223.234,235.58,0.944614
877,15505.2,222.33,234.604,0.562719
889,15717.6,221.434,233.637,0.745492
901,15930,220.544,232.679,0.727873
913,16142.4,219.66,231.726,0.665917
925,16354.8,218.786,230.781,0.462467
937,16567.2,217.916,229.845,0.723145
949,16779.6,217.053,228.913,0.743307
961,16992,216.196,227.991,0.661222
973,17204.4,215.342,227.075,0.321063
985,17416.8,214.497,226.165,-0.022042
997,17629.2,213.655,225.262,0.959482
1009,17841.6,212.821,224.366,0.590256
1021,18054,211.994,223.477,1.117809
1033,18266.4,211.174,222.593,0.348819
1045,18478.8,210.362,221.718,0.623603
1057,18691.2,209.556,220.848,0.415659
1069,18903.6,208.759,219.986,0.808684
1081,19116,207.97,219.129,1.408186
1093,19328.4,207.184,218.279,0.826644
1105,19540.8,206.407,217.436,0.74429
1117,19753.2,205.637,216.6,0.78584
1129,19965.6,204.872,215.771,0.166273
1141,20178,204.114,214.949,0.117432
1153,20390.4,203.364,214.132,0.06263
1165,20602.8,202.625,213.322,0.327273
1177,20815.2,201.889,212.518,0.460796
1189,21027.6,201.152,211.721,0.745727
1201,21240,200.42,210.929,0.373716
1213,21452.4,199.695,210.144,-0.144343
1225,21664.8,198.977,209.365,-0.231253
1237,21877.2,198.264,208.591,-0.182086
1249,22089.6,197.554,207.824,-0.293505
1261,22302,196.85,207.061,-0.328763
1273,22514.4,196.154,206.304,0.261809
1285,22726.8,195.468,205.554,0.341503
1297,22939.2,194.787,204.81,-0.005851
1309,23151.6,194.109,204.071,-0.305177
1321,23364,193.433,203.338,-0.23921
1333,23576.4,192.762,202.61,0.068779
1345,23788.8,192.099,201.888,0.037323
1357,24001.2,191.441,201.171,-0.405155
1369,24213.6,190.79,200.46,-0.480939
1381,24426,190.148,199.754,-0.659429
1393,24638.4,189.505,199.055,-0.535503
1405,24850.8,188.864,198.36,0.460868
1417,25063.2,188.226,197.67,0.486036
1429,25275.6,187.592,196.985,0.585621
1441,25488,186.961,196.305,0.685284
1453,25700.4,186.341,195.629,0.154443
1465,25912.8,185.725,194.959,0.070534
1477,26125.2,185.116,194.292,0.437556
1489,26337.6,184.514,193.632,0.040319
1501,26550,183.916,192.977,-0.525908
1513,26762.4,183.319,192.327,-0.46679
1525,26974.8,182.728,191.681,-0.722237
1537,27187.2,182.137,191.041,-0.088797
1549,27399.6,181.545,190.404,0.07406
1561,27612,180.959,189.772,-0.411369
1573,27824.4,180.384,189.145,-0.633224
1585,28036.8,179.821,188.521,-1.453207
1597,28249.2,179.258,187.903,-1.141326
1609,28461.6,178.688,187.29,-1.25673
1621,28674,178.119,186.68,-1.018715
1633,28886.4,177.56,186.074,-0.951821
1645,29098.8,177.013,185.473,-1.010242
1657,29311.2,176.477,184.876,-0.969259
1669,29523.6,175.949,184.284,-1.380653
1681,29736,175.43,183.698,-1.259525
1693,29948.4,174.915,183.118,-1.647437
1705,30160.8,174.406,182.543,-2.024728
1717,30373.2,173.9,181.974,-1.340997
1729,30585.6,173.4,181.409,-0.954593
1741,30798,172.902,180.85,-1.172113
1753,31010.4,172.408,180.296,-1.547003
1765,31222.8,171.9168,179.746,-1.282025
1777,31435.2,171.428,179.201,-1.069585
1789,31647.6,170.943,178.661,-1.327331
1801,31860,170.459,178.125,-1.118689
1813,32072.4,169.978,177.593,-1.017564
1825,32284.8,169.501,177.066,-0.824637
1837,32497.2,169.028,176.543,-1.47351
1849,32709.6,168.557,176.024,-1.170489
1861,32922,168.089,175.508,-0.734823
1873,33134.4,167.625,174.996,-0.923077
1885,33346.8,167.164,174.488,-1.07751
1897,33559.2,166.704,173.985,-1.047375
1909,33771.6,166.247,173.483,-1.216911
1921,33984,165.792,172.987,-0.958024
1933,34196.4,165.341,172.494,-0.525027
1945,34408.8,164.894,172.003,-0.744962
1957,34621.2,164.449,171.517,-1.237263
1969,34833.6,164.008,171.034,-0.863684
1981,35046,163.569,170.554,-0.631116
1993,35258.4,163.133,170.078,-0.866694
2005,35470.8,162.698,169.603,-0.745947
2017,35683.2,162.267,169.134,-0.913769
2029,35895.6,161.84,168.667,-1.092576
2041,36108,161.417,168.203,-1.200329
2053,36320.4,160.996,167.742,-1.143598
2065,36532.8,160.579,167.285,-0.929251
2077,36745.2,160.165,166.831,-0.395903
2089,36957.6,159.754,166.38,-0.197039
2101,37170,159.346,165.931,-0.377163
2113,37382.4,158.941,165.487,-0.301681
2125,37594.8,158.537,165.045,-0.931849
2137,37807.2,158.136,164.607,-0.533335
2149,38019.6,157.735,164.171,-0.045943
2161,38232,157.339,163.738,-0.263991
2173,38444.4,156.947,163.308,-0.498901
2185,38656.8,156.557,162.88,-0.410479
2197,38869.2,156.171,162.456,-0.73022
2209,39081.6,155.788,162.035,-0.620318
2221,39294,155.407,161.617,-0.349303
2233,39506.4,155.029,161.202,-0.340708
2245,39718.8,154.652,160.789,-0.488428
2257,39931.2,154.276,160.379,-0.334094
2269,40143.6,153.902,159.97,-0.502809
2281,40356,153.532,159.566,-0.419575
2293,40568.4,153.167,159.165,-0.479609
2305,40780.8,152.803,158.766,-0.463007
2317,40993.2,152.44,158.369,-0.262596
2329,41205.6,152.079,157.975,-0.484244
2341,41418,151.719,157.584,-0.788471
2353,41630.4,151.362,157.195,-0.479482
2365,41842.8,151.005,156.807,-0.464624
2377,42055.2,150.65,156.423,-0.419605
2389,42267.6,150.297,156.042,-0.248185
2401,42480,149.948,155.661,-0.288442
2413,42692.4,149.603,155.284,-0.585796
2425,42904.8,149.262,154.91,-0.328133
2437,43117.2,148.922,154.537,-0.333149
2449,43329.6,148.584,154.167,-0.321928
2461,43542,148.248,153.799,-0.105972
2473,43754.4,147.916,153.433,-0.167682
2485,43966.8,147.583,153.071,-0.096648
2497,44179.2,147.251,152.71,-0.063348
2509,44391.6,146.922,152.352,0.11993
2521,44604,146.598,151.996,-0.159434
2533,44816.4,146.276,151.641,-0.379929
2545,45028.8,145.955,151.29,-0.376991
2557,45241.2,145.638,150.941,-0.324742
2569,45453.6,145.324,150.594,-0.239715
2581,45666,145.007,150.249,-0.189832
2593,45878.4,144.693,149.907,0.13759
2605,46090.8,144.379,149.566,0.027895
2617,46303.2,144.064,149.228,-0.217571
2629,46515.6,143.751,148.892,-0.055235
2641,46728,143.438,148.556,0.075851
2653,46940.4,143.126,148.2228,0.119746
2665,47152.8,142.815,147.891,0.155072
2677,47365.2,142.507,147.56,0.159314
2689,47577.6,142.201,147.232,0.077819
2701,47790,141.899,146.905,0.130792
2713,48002.4,141.6,146.58,0.181533
2725,48214.8,141.302,146.257,0.164198
2737,48427.2,141.007,145.936,0.052022
2749,48639.6,140.713,145.617,0.185675
2761,48852,140.421,145.299,0.174984
2773,49064.4,140.133,144.983,0.176406
2785,49276.8,139.847,144.67,0.034177
2797,49489.2,139.56,144.358,0.045977
2809,49701.6,139.276,144.048,-0.037386
2821,49914,138.991,143.74,-0.050612
2833,50126.4,138.708,143.433,0.119931
2845,50338.8,138.429,143.129,0.080404
2857,50551.2,138.153,142.8263,0.139449
2869,50763.6,137.88,142.525,0.1159
2881,50976,137.612,142.226,0.083835
2893,51188.4,137.348,141.93,-0.109329
2905,51400.8,137.091,141.635,0.2629
2917,51613.2,136.836,141.344,0.244509
2929,51825.6,136.585,141.055,0.069363
2941,52038,136.337,140.769,0.001655
2953,52250.4,136.09,140.485,-0.130228
2965,52462.8,135.841,140.205,-0.01296
2977,52675.2,135.594,139.925,0.062535
2989,52887.6,135.349,139.648,-0.061504
3001,53100,135.105,139.373,-0.006124
3013,53312.4,134.86,139.101,-0.053757
3025,53524.8,134.62,138.83,-0.046099
3037,53737.2,134.379,138.561,-0.016741
3049,53949.6,134.136,138.294,0.177568
3061,54162,133.896,138.029,0.033151
3073,54374.4,133.659,137.766,0.030357
3085,54586.8,133.426,137.505,-0.126343
3097,54799.2,133.196,137.245,-0.176344
3109,55011.6,132.97,136.988,-0.110048
3121,55224,132.746,136.733,-0.010248
3133,55436.4,132.524,136.48,-0.042242
3145,55648.8,132.305,136.229,0.056141
3157,55861.2,132.089,135.9802,0.029199
3169,56073.6,131.876,135.734,-0.031369
3181,56286,131.665,135.489,0.15651
3193,56498.4,131.455,135.247,0.131463
3205,56710.8,131.246,135.007,0.151928
3217,56923.2,131.041,134.77,0.198845
3229,57135.6,130.837,134.534,0.032312
3241,57348,130.636,134.301,-0.08657
3253,57560.4,130.435,134.07,0.06
3265,57772.8,130.236,133.841,0.008232
3277,57985.2,130.038,133.613,0.008393
3289,58197.6,129.842,133.389,0.102587
3301,58410,129.648,133.165,0.081554
3313,58622.4,129.4569,132.944,0.066174
3325,58834.8,129.265,132.725,-0.02313
3337,59047.2,129.074,132.507,-0.038992
3349,59259.6,128.884,132.292,0.034138
3361,59472,128.694,132.077,0.072961
3373,59684.4,128.501,131.865,0.060694
3385,59896.8,128.307,131.654,0.008216
3397,60109.2,128.113,131.444,0.056826
3409,60321.6,127.92,131.235,0.029576
3421,60534,127.732,131.028,-0.036492
3433,60746.4,127.546,130.821,-0.022314
3445,60958.8,127.365,130.616,0.053907
3457,61171.2,127.186,130.413,0.061002
3469,61383.6,127.01,130.211,0.136554
3481,61596,126.834,130.011,0.000609
3493,61808.4,126.66,129.813,0.042157
3505,62020.8,126.486,129.616,-0.058322
3517,62233.2,126.314,129.421,0.099329
3529,62445.6,126.141,129.227,0.03851
3541,62658,125.969,129.034,-0.008424
3553,62870.4,125.8,128.844,-0.044769
3565,63082.8,125.631,128.655,-0.009479
3577,63295.2,125.461,128.467,-0.015592
3589,63507.6,125.291,128.28,0.012936
3601,63720,125.122,128.094,0.029497
3613,63932.4,124.954,127.909,-0.002854
3625,64144.8,124.788,127.726,0.030299
3637,64357.2,124.621,127.543,-0.03502
3649,64569.6,124.454,127.362,-0.028702
3661,64782,124.287,127.182,0.074862
3673,64994.4,124.12,127.002,0.077137
3685,65206.8,123.956,126.823,0.096887
3697,65419.2,123.795,126.646,-0.008925
3709,65631.6,123.636,126.469,-0.022727
3721,65844,123.48,126.294,-0.006462
3733,66056.4,123.325,126.119,0.024655
3745,66268.8,123.173,125.947,-0.016352
3757,66481.2,123.022,125.776,-0.000131
3769,66693.6,122.872,125.606,0.041492
3781,66906,122.722,125.437,0.082752
3793,67118.4,122.572,125.269,0.073453
3805,67330.8,122.426,125.104,-0.017794
3817,67543.2,122.282,124.939,0.022115
3829,67755.6,122.14,124.775,-0.004636
3841,67968,121.998,124.613,-0.029834
3853,68180.4,121.857,124.453,-0.096137
3865,68392.8,121.715,124.293,-0.030063
3877,68605.2,121.573,124.135,-0.030272
3889,68817.6,121.43,123.978,-0.049116
3901,69030,121.286,123.821,-0.028452
3913,69242.4,121.144,123.665,-0.031277
3925,69454.8,121.006,123.51,-0.019626
3937,69667.2,120.869,123.357,-0.029681
3949,69879.6,120.734,123.204,-0.01158
3961,70092,120.598,123.053,-0.013887
3973,70304.4,120.462,122.903,-0.029091
3985,70516.8,120.326,122.754,-0.071067
3997,70729.2,120.192,122.605,-0.002273
4009,70941.6,120.059,122.458,-0.023051
4021,71154,119.931,122.312,-0.046478
4033,71366.4,119.805,122.167,-0.041428
4045,71578.8,119.68,122.023,0.004659
4057,71791.2,119.556,121.881,-0.014239
4069,72003.6,119.432,121.739,0.040221
4081,72216,119.309,121.599,0.045484
4093,72428.4,119.184,121.459,0.030605
4105,72640.8,119.059,121.321,0.00468
4117,72853.2,118.936,121.184,-0.000461
4129,73065.6,118.8133,121.048,0.020109
4141,73278,118.691,120.912,0.036358
4153,73490.4,118.57,120.777,0.038978
4165,73702.8,118.45,120.643,0.070771
4177,73915.2,118.33,120.51,0.054211
4189,74127.6,118.208,120.378,0.040093
4201,74340,118.087,120.246,0.057694
4213,74552.4,117.969,120.115,0.030563
4225,74764.8,117.853,119.986,0.02048
4237,74977.2,117.739,119.857,0.030285
4249,75189.6,117.624,119.729,0.054885
4261,75402,117.507,119.602,0.076093
4273,75614.4,117.386,119.475,0.084474
4285,75826.8,117.265,119.349,0.08843
4297,76039.2,117.145,119.224,0.090399
4309,76251.6,117.027,119.098,0.091028
4321,76464,116.911,118.973,0.066387
4333,76676.4,116.797,118.849,0.09998
4345,76888.8,116.686,118.726,0.100295
4357,77101.2,116.574,118.603,0.089316
4369,77313.6,116.457,118.48,0.083683
4381,77526,116.34,118.359,0.126404
4393,77738.4,116.229,118.237,0.126966
4405,77950.8,116.122,118.117,0.102837
4417,78163.2,116.019,117.997,0.102116
4429,78375.6,115.919,117.878,0.094251
4441,78588,115.823,117.761,0.116797
4453,78800.4,115.731,117.645,0.111642
4465,79012.8,115.64,117.531,0.112238
4477,79225.2,115.551,117.418,0.120039
4489,79437.6,115.4634,117.307,0.122275
4501,79650,115.377,117.197,0.127539
4513,79862.4,115.291,117.089,0.111804
4525,80074.8,115.207,116.983,0.128889
4537,80287.2,115.129,116.877,0.128961
4549,80499.6,115.052,116.775,0.136592
4561,80712,114.978,116.673,0.131029
4573,80924.4,114.904,116.574,0.145854
4585,81136.8,114.83,116.476,0.142643
4597,81349.2,114.758,116.38,0.145105
4609,81561.6,114.688,116.285,0.151803
4621,81774,114.621,116.191,0.149251
4633,81986.4,114.553,116.099,0.164724
4645,82198.8,114.487,116.011,0.152118
4657,82411.2,114.417,115.921,0.16412
4669,82623.6,114.34,115.834,0.173687
4681,82836,114.262,115.747,0.162744
4693,83048.4,114.178,115.66,0.166585
4705,83260.8,114.084,115.573,0.17664
4717,83473.2,113.989,115.485,0.182649
4729,83685.6,113.903,115.3982,0.168492
4741,83898,113.822,115.3104,0.17707
4753,84110.4,113.744,115.224,0.17316
4765,84322.8,113.671,115.138,0.165467
4777,84535.2,113.6,115.052,0.161516
4789,84747.6,113.526,114.968,0.156837
4801,84960,113.456,114.885,0.167951
4813,85172.4,113.385,114.801,0.152952
4825,85384.8,113.307,114.719,0.158933
4837,85597.2,113.227,114.638,0.151461
4849,85809.6,113.156,114.555,0.1607
4861,86022,113.09,114.474,0.146443
4873,86234.4,113.022,114.395,0.146896
4885,86446.8,112.958,114.316,0.142142
4897,86659.2,112.896,114.238,0.148445
4909,86871.6,112.831,114.16,0.137829
4921,87084,112.769,114.084,0.131197
4933,87296.4,112.71,114.009,0.125152
4945,87508.8,112.644,113.934,0.132978
4957,87721.2,112.576,113.861,0.130193
4969,87933.6,112.51,113.787,0.12339
4981,88146,112.446,113.714,0.123272
4993,88358.4,112.381,113.642,0.118709
5005,88570.8,112.323,113.57,0.12757
5017,88783.2,112.27,113.5,0.124338
5029,88995.6,112.219,113.43,0.123327
5041,89208,112.171,113.361,0.115099
5053,89420.4,112.116,113.295,0.130481
5065,89632.8,112.056,113.228,0.124101
5077,89845.2,111.997,113.163,0.139055
5089,90057.6,111.941,113.098,0.126943
5101,90270,111.885,113.032,0.133707
5113,90482.4,111.833,112.968,0.122545
5125,90694.8,111.785,112.904,0.131991
5137,90907.2,111.738,112.842,0.129053
5149,91119.6,111.695,112.78,0.134302
5161,91332,111.656,112.721,0.118704
5173,91544.4,111.611,112.662,0.124042
5185,91756.8,111.555,112.604,0.131704
5197,91969.2,111.494,112.545,0.121876
5209,92181.6,111.442,112.487,0.132771
5221,92394,111.392,112.429,0.124015
5233,92606.4,111.345,112.373,0.122883
5245,92818.8,111.3,112.315,0.119752
5257,93031.2,111.25,112.259,0.12747
5269,93243.6,111.196,112.204,0.116532
5281,93456,111.1444,112.148,0.123214
5293,93668.4,111.096,112.093,0.111356
5305,93880.8,111.05,112.038,0.124128
5317,94093.2,111.009,111.984,0.114877
5329,94305.6,110.973,111.931,0.125134
5341,94518,110.934,111.879,0.118236
5353,94730.4,110.897,111.828,0.123948
5365,94942.8,110.866,111.779,0.108282
5377,95155.2,110.832,111.729,0.115262
5389,95367.6,110.797,111.682,0.103944
5401,95580,110.766,111.635,0.114101
5413,95792.4,110.734,111.588,0.107919
5425,96004.8,110.701,111.543,0.114044
5437,96217.2,110.668,111.499,0.098892
5449,96429.6,110.631,111.455,0.105274
5461,96642,110.59,111.411,0.098873
5473,96854.4,110.552,111.368,0.101018
5485,97066.8,110.517,111.325,0.10603
5497,97279.2,110.479,111.282,0.10442
5509,97491.6,110.446,111.24,0.110513
5521,97704,110.416,111.199,0.093979
5533,97916.4,110.386,111.158,0.095312
5545,98128.8,110.355,111.118,0.092769
5557,98341.2,110.324,111.079,0.098083
5569,98553.6,110.285,111.04,0.099109
5581,98766,110.242,111.001,0.092612
5593,98978.4,110.205,110.961,0.106126
5605,99190.8,110.171,110.921,0.097187
5617,99403.2,110.136,110.883,0.105651
5629,99615.6,110.105,110.845,0.089739
5641,99828,110.069,110.807,0.098618
5653,100040.4,110.027,110.769,0.096151
5665,100252.8,109.99,110.73,0.091774
5677,100465.2,109.957,110.692,0.100228
5689,100677.6,109.923,110.654,0.090556
5701,100890,109.89,110.617,0.082437
5713,101102.4,109.863,110.58,0.095881
5725,101314.8,109.84,110.544,0.085373
5737,101527.2,109.819,110.509,0.086758
5749,101739.6,109.799,110.474,0.07341
5761,101952,109.776,110.44,0.079278
5773,102164.4,109.75,110.408,0.069074
5785,102376.8,109.728,110.374,0.073237
5797,102589.2,109.708,110.343,0.074184
5809,102801.6,109.689,110.312,0.070757
5821,103014,109.671,110.282,0.072407
5833,103226.4,109.649,110.253,0.068666
5845,103438.8,109.622,110.223,0.069633
5857,103651.2,109.598,110.195,0.062928
5869,103863.6,109.577,110.166,0.072148
5881,104076,109.553,110.138,0.059589
5893,104288.4,109.532,110.11,0.072758
5905,104500.8,109.508,110.082,0.06498
5917,104713.2,109.479,110.055,0.065076
5929,104925.6,109.45,110.028,0.074129
5941,105138,109.426,110,0.061184
5953,105350.4,109.402,109.973,0.064649
5965,105562.8,109.38,109.946,0.060368
5977,105775.2,109.359,109.92,0.071511
5989,105987.6,109.342,109.893,0.058461
6001,106200,109.593,109.871,0.031871
6013,106412.4,110.174,109.875,-0.09529
6025,106624.8,110.733,109.912,-0.195571
6037,106837.2,111.183,109.977,-0.250489
6049,107049.6,111.557,110.064,-0.282331
6061,107262,111.903,110.17,-0.299716
6073,107474.4,112.249,110.289,-0.323724
6085,107686.8,112.598,110.424,-0.336759
6097,107899.2,112.95,110.572,-0.364508
6109,108111.6,113.307,110.732,-0.381241
6121,108324,113.666,110.905,-0.420186
6133,108536.4,114.022,111.091,-0.43734
6145,108748.8,114.377,111.287,-0.457548
6157,108961.2,114.731,111.492,-0.460732
6169,109173.6,115.083,111.708,-0.486832
6181,109386,115.438,111.932,-0.499233
6193,109598.4,115.795,112.164,-0.528
6205,109810.8,116.151,112.404,-0.541365
6217,110023.2,116.506,112.652,-0.549928
6229,110235.6,116.859,112.905,-0.559879
6241,110448,117.211,113.165,-0.574481
6253,110660.4,117.566,113.43,-0.587221
6265,110872.8,117.922,113.701,-0.598546
6277,111085.2,118.277,113.976,-0.609338
6289,111297.6,118.632,114.258,-0.607351
6301,111510,118.984,114.543,-0.626656
6313,111722.4,119.336,114.832,-0.631646
6325,111934.8,119.692,115.126,-0.636788
6337,112147.2,120.048,115.423,-0.642652
6349,112359.6,120.403,115.723,-0.647656
6361,112572,120.758,116.027,-0.647221
6373,112784.4,121.1155,116.334,-0.667853
6385,112996.8,121.47,116.643,-0.667663
6397,113209.2,121.824,116.956,-0.671184
6409,113421.6,122.175,117.271,-0.661875
6421,113634,122.526,117.589,-0.676091
6433,113846.4,122.879,117.907,-0.675804
6445,114058.8,123.239,118.229,-0.683545
6457,114271.2,123.5949,118.552,-0.685875
6469,114483.6,123.946,118.877,-0.684663
6481,114696,124.298,119.203,-0.679661
6493,114908.4,124.654,119.531,-0.694681
6505,115120.8,125.008,119.86,-0.68845
6517,115333.2,125.363,120.19,-0.698706
6529,115545.6,125.72,120.523,-0.695875
6541,115758,126.072,120.857,-0.700886
6553,115970.4,126.424,121.192,-0.699625
6565,116182.8,126.779,121.527,-0.694059
6577,116395.2,127.133,121.864,-0.696925
6589,116607.6,127.487,122.201,-0.693064
6601,116820,127.843,122.539,-0.699277
6613,117032.4,128.197,122.877,-0.68842
6625,117244.8,128.548,123.218,-0.692318
6637,117457.2,128.902,123.559,-0.687416
6649,117669.6,129.258,123.9,-0.695162
6661,117882,129.611,124.242,-0.68668
6673,118094.4,129.965,124.584,-0.686043
6685,118306.8,130.321,124.926,-0.69463
6697,118519.2,130.675,125.27,-0.689926
6709,118731.6,131.028,125.614,-0.692389
6721,118944,131.382,125.957,-0.676089
6733,119156.4,131.736,126.303,-0.680827
6745,119368.8,132.086,126.648,-0.675545
6757,119581.2,132.443,126.993,-0.666784
6769,119793.6,132.802,127.339,-0.667148
6781,120006,133.157,127.686,-0.676783
6793,120218.4,133.505,128.032,-0.67065
6805,120430.8,133.853,128.378,-0.659497
6817,120643.2,134.209,128.725,-0.654365
6829,120855.6,134.568,129.071,-0.669019
6841,121068,134.922,129.418,-0.657951
6853,121280.4,135.275,129.766,-0.654494
6865,121492.8,135.634,130.113,-0.653208
6877,121705.2,135.989,130.462,-0.662115
6889,121917.6,136.338,130.81,-0.647579
6901,122130,136.689,131.159,-0.641242
6913,122342.4,137.046,131.507,-0.649136
6925,122554.8,137.402,131.855,-0.656396
6937,122767.2,137.753,132.204,-0.641188
6949,122979.6,138.105,132.552,-0.64031
6961,123192,138.462,132.902,-0.642576
6973,123404.4,138.819,133.251,-0.645202
6985,123616.8,139.171,133.599,-0.631177
6997,123829.2,139.524,133.949,-0.643557
7009,124041.6,139.882,134.3,-0.638082
7021,124254,140.24,134.649,-0.638721
7033,124466.4,140.592,135,-0.63839
7045,124678.8,140.945,135.35,-0.634863
7057,124891.2,141.296,135.702,-0.622504
7069,125103.6,141.643,136.053,-0.626074
7081,125316,141.996,136.403,-0.621034
7093,125528.4,142.355,136.752,-0.615608
7105,125740.8,142.713,137.102,-0.623333
7117,125953.2,143.069,137.453,-0.609005
7129,126165.6,143.423,137.804,-0.617778
7141,126378,143.776,138.156,-0.609581
7153,126590.4,144.13,138.507,-0.616787
7165,126802.8,144.484,138.859,-0.606654
7177,127015.2,144.838,139.211,-0.603381
7189,127227.6,145.191,139.563,-0.604869
7201,127440,145.543,139.915,-0.589239
7213,127652.4,145.896,140.266,-0.599317
7225,127864.8,146.251,140.618,-0.590315
7237,128077.2,146.607,140.969,-0.598447
7249,128289.6,146.962,141.321,-0.58997
7261,128502,147.315,141.674,-0.590547
7273,128714.4,147.669,142.026,-0.588864
7285,128926.8,148.022,142.379,-0.581969
7297,129139.2,148.377,142.731,-0.586757
7309,129351.6,148.729,143.084,-0.572393
7321,129564,149.084,143.437,-0.580383
7333,129776.4,149.438,143.789,-0.57003
7345,129988.8,149.791,144.142,-0.576625
7357,130201.2,150.144,144.494,-0.562979
7369,130413.6,150.498,144.847,-0.564829
7381,130626,150.853,145.2,-0.558824
7393,130838.4,151.207,145.553,-0.557071
7405,131050.8,151.561,145.907,-0.556829
7417,131263.2,151.916,146.26,-0.553912
7429,131475.6,152.27,146.613,-0.551815
7441,131688,152.623,146.966,-0.542162
7453,131900.4,152.976,147.319,-0.54374
7465,132112.8,153.33,147.672,-0.53716
7477,132325.2,153.684,148.027,-0.544424
7489,132537.6,154.039,148.3804,-0.532798
7501,132750,154.394,148.734,-0.532162
7513,132962.4,154.748,149.087,-0.514253
7525,133174.8,155.102,149.441,-0.520562
7537,133387.2,155.455,149.794,-0.518511
7549,133599.6,155.81,150.148,-0.514076
7561,133812,156.165,150.502,-0.518153
7573,134024.4,156.517,150.856,-0.508838
7585,134236.8,156.869,151.21,-0.505203
7597,134449.2,157.222,151.563,-0.495197
7609,134661.6,157.578,151.916,-0.502933
7621,134874,157.934,152.271,-0.491235
7633,135086.4,158.29,152.625,-0.493059
7645,135298.8,158.644,152.979,-0.471397
7657,135511.2,158.996,153.333,-0.4758
7669,135723.6,159.35,153.687,-0.473069
7681,135936,159.705,154.043,-0.458261
7693,136148.4,160.059,154.397,-0.464942
7705,136360.8,160.413,154.751,-0.459285
7717,136573.2,160.766,155.106,-0.473256
7729,136785.6,161.121,155.461,-0.446172
7741,136998,161.474,155.815,-0.46663
7753,137210.4,161.828,156.1687,-0.433613
7765,137422.8,162.183,156.524,-0.443627
7777,137635.2,162.537,156.879,-0.442782
7789,137847.6,162.89,157.234,-0.438182
7801,138060,163.243,157.589,-0.436781
7813,138272.4,163.597,157.943,-0.4198
7825,138484.8,163.952,158.298,-0.420819
7837,138697.2,164.306,158.653,-0.418793
7849,138909.6,164.6612,159.007,-0.40044
7861,139122,165.016,159.362,-0.399719
7873,139334.4,165.369,159.717,-0.371068
7885,139546.8,165.723,160.073,-0.378302
7897,139759.2,166.077,160.428,-0.384476
7909,139971.6,166.432,160.784,-0.384686
7921,140184,166.785,161.138,-0.355834
7933,140396.4,167.138,161.494,-0.373765
7945,140608.8,167.493,161.849,-0.388402
7957,140821.2,167.847,162.204,-0.346041
7969,141033.6,168.2,162.559,-0.353217
7981,141246,168.552,162.914,-0.342665
7993,141458.4,168.906,163.269,-0.320698
8005,141670.8,169.258,163.624,-0.31246
8017,141883.2,169.609,163.978,-0.331708
8029,142095.6,169.964,164.333,-0.305882
8041,142308,170.323,164.687,-0.261306
8053,142520.4,170.678,165.041,-0.211905
8065,142732.8,171.032,165.395,-0.26266
8077,142945.2,171.387,165.75,-0.263722
8089,143157.6,171.739,166.105,-0.244869
8101,143370,172.091,166.46,-0.269992
8113,143582.4,172.447,166.815,-0.26064
8125,143794.8,172.802,167.17,-0.2128
8137,144007.2,173.155,167.524,-0.243104
8149,144219.6,173.51,167.879,-0.261442
8161,144432,173.864,168.233,-0.228619
8173,144644.4,174.217,168.588,-0.23275
8185,144856.8,174.572,168.944,-0.225573
8197,145069.2,174.927,169.298,-0.239404
8209,145281.6,175.28,169.653,-0.237978
8221,145494,175.634,170.009,-0.232014
8233,145706.4,175.989,170.363,-0.178238
8245,145918.8,176.342,170.719,-0.171524
8257,146131.2,176.696,171.075,-0.123645
8269,146343.6,177.051,171.429,-0.105718
8281,146556,177.404,171.784,-0.149801
8293,146768.4,177.758,172.14,-0.122981
8305,146980.8,178.113,172.495,-0.101643
8317,147193.2,178.469,172.852,-0.147195
8329,147405.6,178.822,173.208,-0.175207
8341,147618,179.176,173.563,-0.122648
8353,147830.4,179.53,173.919,-0.129547
8365,148042.8,179.882,174.274,-0.177823
8377,148255.2,180.237,174.63,-0.137688
8389,148467.6,180.591,174.986,-0.089709
8401,148680,180.943,175.341,-0.044033
8413,148892.4,181.296,175.698,-0.056875
8425,149104.8,181.65,176.053,-0.065751
8437,149317.2,182.005,176.408,-0.011086
8449,149529.6,182.361,176.764,-0.126086
8461,149742,182.716,177.119,-0.144292
8473,149954.4,183.069,177.475,-0.028434
8485,150166.8,183.423,177.831,0.005584
8497,150379.2,183.778,178.186,-0.044584
8509,150591.6,184.132,178.543,-0.011513
8521,150804,184.484,178.899,0.046011
8533,151016.4,184.838,179.255,0.020297
8545,151228.8,185.19,179.609,-0.044356
8557,151441.2,185.545,179.966,-0.04234
8569,151653.6,185.9,180.322,0.069911
8581,151866,186.254,180.677,0.130637
8593,152078.4,186.608,181.033,0.09281
8605,152290.8,186.963,181.388,0.061755
8617,152503.2,187.316,181.745,0.114682
8629,152715.6,187.67,182.101,0.086733
8641,152928,188.026,182.456,0.088229
8653,153140.4,188.379,182.812,0.011922
8665,153352.8,188.732,183.169,0.1723
8677,153565.2,189.086,183.524,0.154568
8689,153777.6,189.439,183.879,0.108501
8701,153990,189.795,184.235,0.138657
8713,154202.4,190.15,184.591,0.209118
8725,154414.8,190.503,184.947,0.192135
8737,154627.2,190.856,185.303,0.203242
8749,154839.6,191.21,185.66,0.206563
8761,155052,191.564,186.015,0.132269
8773,155264.4,191.92,186.37,0.140472
8785,155476.8,192.273,186.727,0.117915
8797,155689.2,192.625,187.083,0.037815
8809,155901.6,192.979,187.438,0.074318
8821,156114,193.335,187.794,0.034876
8833,156326.4,193.688,188.15,0.180915
8845,156538.8,194.043,188.506,0.180145
8857,156751.2,194.397,188.863,0.188641
8869,156963.6,194.749,189.219,0.142287
8881,157176,195.104,189.574,0.150033
8893,157388.4,195.459,189.93,0.032786
8905,157600.8,195.812,190.286,0.098072
8917,157813.2,196.167,190.641,0.316529
8929,158025.6,196.519,190.998,0.435773
8941,158238,196.873,191.353,0.281386
8953,158450.4,197.23,191.71,0.083754
8965,158662.8,197.584,192.066,0.131864
8977,158875.2,197.9354,192.421,0.195659
8989,159087.6,198.289,192.777,0.198806
9001,159300,198.644,193.134,0.22694
9013,159512.4,198.998,193.489,0.411408
9025,159724.8,199.353,193.844,0.24594
9037,159937.2,199.706,194.201,0.231
9049,160149.6,200.06,194.556,0.33618
9061,160362,200.415,194.913,0.347602
9073,160574.4,200.767,195.268,0.345145
9085,160786.8,201.12,195.625,0.331147
9097,160999.2,201.475,195.98,0.357169
9109,161211.6,201.83,196.335,0.338288
9121,161424,202.184,196.691,0.444151
9133,161636.4,202.539,197.046,0.357492
9145,161848.8,202.893,197.402,0.208856
9157,162061.2,203.246,197.759,0.34937
9169,162273.6,203.6,198.115,0.386941
9181,162486,203.954,198.47,0.449306
9193,162698.4,204.308,198.826,0.437769
9205,162910.8,204.662,199.182,0.455263
9217,163123.2,205.016,199.537,0.322489
9229,163335.6,205.369,199.894,0.390558
9241,163548,205.725,200.249,0.392116
9253,163760.4,206.079,200.604,0.304717
9265,163972.8,206.432,200.961,0.328147
9277,164185.2,206.785,201.317,0.380375
9289,164397.6,207.142,201.673,0.33527
9301,164610,207.495,202.028,0.42872
9313,164822.4,207.849,202.384,0.517154
9325,165034.8,208.204,202.741,0.424665
9337,165247.2,208.557,203.097,0.365364
9349,165459.6,208.91,203.453,0.250792
9361,165672,209.264,203.8095,0.33851
9373,165884.4,209.616,204.165,0.415368
9385,166096.8,209.971,204.521,0.429576
9397,166309.2,210.327,204.876,0.365917
9409,166521.6,210.681,205.232,0.382924
9421,166734,211.036,205.588,0.288043
9433,166946.4,211.39,205.944,0.38234
9445,167158.8,211.742,206.3,0.469029
9457,167371.2,212.094,206.656,0.299329
9469,167583.6,212.449,207.012,0.387017
9481,167796,212.804,207.368,0.384581
9493,168008.4,213.159,207.725,0.117803
9505,168220.8,213.514,208.08,0.283188
9517,168433.2,213.868,208.436,0.48553
9529,168645.6,214.22,208.792,0.508324
9541,168858,214.575,209.148,0.50372
9553,169070.4,214.928,209.504,0.377474
9565,169282.8,215.281,209.859,0.270369
9577,169495.2,215.636,210.215,0.376902
9589,169707.6,215.991,210.572,0.390571
9601,169920,216.346,210.927,0.518932
9613,170132.4,216.699,211.284,0.625831
9625,170344.8,217.053,211.64,0.496895
9637,170557.2,217.409,211.996,0.403076
9649,170769.6,217.762,212.353,0.510408
9661,170982,218.115,212.708,0.33354
9673,171194.4,218.469,213.064,0.52165
9685,171406.8,218.822,213.421,0.533309
9697,171619.2,219.178,213.777,0.532922
9709,171831.6,219.531,214.134,0.532373
9721,172044,219.885,214.489,0.638846
9733,172256.4,220.239,214.845,0.619982
9745,172468.8,220.594,215.202,0.507948
9757,172681.2,220.948,215.558,0.304215
9769,172893.6,221.3,215.914,0.393786
9781,173106,221.655,216.27,0.296622
9793,173318.4,222.009,216.626,0.438575
9805,173530.8,222.362,216.982,0.541607
9817,173743.2,222.716,217.338,0.662523
9829,173955.6,223.07,217.694,0.675942
9841,174168,223.425,218.05,0.461418
9853,174380.4,223.78,218.405,0.285929
9865,174592.8,224.133,218.762,0.288873
9877,174805.2,224.489,219.118,0.417646
9889,175017.6,224.842,219.474,0.327827
9901,175230,225.196,219.83,0.452503
9913,175442.4,225.5488,220.187,0.516217
9925,175654.8,225.903,220.542,0.563142
9937,175867.2,226.257,220.9,0.43849
9949,176079.6,226.611,221.255,0.580689
9961,176292,226.965,221.611,0.550359
9973,176504.4,227.318,221.967,0.600068
9985,176716.8,227.673,222.323,0.686664
9997,176929.2,228.027,222.679,0.706698
10009,177141.6,228.381,223.035,0.514363
10021,177354,228.736,223.392,0.524706
10033,177566.4,229.089,223.748,0.66934
10045,177778.8,229.443,224.104,0.567047
10057,177991.2,229.798,224.46,0.481111
10069,178203.6,230.151,224.816,0.503324
10081,178416,230.505,225.172,0.548592
10093,178628.4,230.859,225.528,0.498088
10105,178840.8,231.213,225.885,0.513082
10117,179053.2,231.567,226.241,0.462515
10129,179265.6,231.921,226.597,0.508909
10141,179478,232.274,226.953,0.433087
10153,179690.4,232.629,227.309,0.470625
10165,179902.8,232.983,227.665,0.667574
10177,180115.2,233.337,228.021,0.636528
10189,180327.6,233.691,228.3767,0.553869
10201,180540,234.046,228.733,0.698332
10213,180752.4,234.4,229.089,0.739325
10225,180964.8,234.752,229.445,0.818199
10237,181177.2,235.106,229.802,0.757596
10249,181389.6,235.461,230.158,0.747965
10261,181602,235.814,230.514,0.652524
10273,181814.4,236.169,230.869,0.522173
10285,182026.8,236.522,231.225,0.50397
10297,182239.2,236.876,231.581,0.638928
10309,182451.6,237.231,231.937,0.531737
10321,182664,237.586,232.293,0.480025
10333,182876.4,237.94,232.649,0.624596
10345,183088.8,238.294,233.006,0.569214
10357,183301.2,238.649,233.362,0.725173
10369,183513.6,239.002,233.718,0.739092
10381,183726,239.354,234.074,0.771208
10393,183938.4,239.708,234.43,0.721947
10405,184150.8,240.062,234.786,0.623583
10417,184363.2,240.418,235.143,0.636349
10429,184575.6,240.771,235.499,0.683949
10441,184788,241.125,235.854,0.697667
10453,185000.4,241.479,236.21,0.661984
10465,185212.8,241.833,236.566,0.414672
10477,185425.2,242.188,236.922,0.546886
10489,185637.6,242.542,237.279,0.623019
10501,185850,242.896,237.635,0.553534
10513,186062.4,243.25,237.991,0.628437
10525,186274.8,243.603,238.347,0.543218
10537,186487.2,243.958,238.704,0.634503
10549,186699.6,244.311,239.06,0.724421
10561,186912,244.667,239.416,0.778705
10573,187124.4,245.02,239.772,0.642781
10585,187336.8,245.373,240.128,0.642636
10597,187549.2,245.727,240.485,0.707568
10609,187761.6,246.081,240.841,0.774313
10621,187974,246.435,241.196,0.579207
10633,188186.4,246.789,241.553,0.616301
10645,188398.8,247.143,241.909,0.632656
10657,188611.2,247.497,242.265,0.692629
10669,188823.6,247.851,242.621,0.746415
10681,189036,248.206,242.977,0.768777
10693,189248.4,248.56,243.333,0.741715
10705,189460.8,248.913,243.689,0.620246
10717,189673.2,249.266,244.045,0.705133
10729,189885.6,249.62,244.4,0.569343
10741,190098,249.974,244.756,0.585615
10753,190310.4,250.33,245.112,0.657165
10765,190522.8,250.684,245.468,0.67726
10777,190735.2,251.037,245.824,0.755777
10789,190947.6,251.39,246.181,0.68545
10801,191160,251.745,246.536,0.628275
10813,191372.4,252.099,246.892,0.740601
10825,191584.8,252.453,247.248,0.730135
10837,191797.2,252.807,247.603,0.705509
10849,192009.6,253.162,247.959,0.683156
10861,192222,253.515,248.316,0.708913
10873,192434.4,253.869,248.671,0.736841
10885,192646.8,254.222,249.027,0.708703
10897,192859.2,254.577,249.382,0.786545
10909,193071.6,254.931,249.739,0.795897
10921,193284,255.286,250.094,0.791744
10933,193496.4,255.639,250.45,0.772272
10945,193708.8,255.993,250.806,0.748026
10957,193921.2,256.348,251.162,0.786035
10969,194133.6,256.701,251.517,0.75262
10981,194346,257.055,251.874,0.743969
10993,194558.4,257.409,252.229,0.769683
11005,194770.8,257.762,252.586,0.838105
11017,194983.2,258.117,252.941,0.809188
11029,195195.6,258.472,253.296,0.769042
11041,195408,258.825,253.652,0.777287
11053,195620.4,259.18,254.008,0.749067
11065,195832.8,259.533,254.364,0.774181
11077,196045.2,259.888,254.72,0.758295
11089,196257.6,260.24,255.076,0.842782
11101,196470,260.594,255.431,0.858233
11113,196682.4,260.947,255.787,0.795718
11125,196894.8,261.301,256.143,0.823366
11137,197107.2,261.655,256.498,0.834516
11149,197319.6,262.01,256.853,0.814306
11161,197532,262.365,257.209,0.820804
11173,197744.4,262.717,257.565,0.89824
11185,197956.8,263.072,257.921,0.981431
11197,198169.2,263.426,258.276,0.888064
11209,198381.6,263.779,258.63,0.886437
11221,198594,264.134,258.986,0.940601
11233,198806.4,264.488,259.341,0.963013
11245,199018.8,264.842,259.697,0.927928
11257,199231.2,265.195,260.053,0.821524
11269,199443.6,265.55,260.408,0.820654
11281,199656,265.904,260.763,0.91465
11293,199868.4,266.259,261.119,0.893447
11305,200080.8,266.6141,261.475,0.908834
11317,200293.2,266.968,261.829,0.899241
11329,200505.6,267.321,262.185,0.874688
11341,200718,267.674,262.54,0.846387
11353,200930.4,268.029,262.896,0.841041
11365,201142.8,268.383,263.251,0.876665
11377,201355.2,268.737,263.607,0.936335
11389,201567.6,269.092,263.962,0.926433
11401,201780,269.446,264.318,0.896886
11413,201992.4,269.801,264.674,0.894901
11425,202204.8,270.151,265.03,0.892081
11437,202417.2,270.505,265.385,0.841973
11449,202629.6,270.86,265.74,0.885758
11461,202842,271.216,266.095,0.89035
11473,203054.4,271.568,266.451,0.926182
11485,203266.8,271.922,266.806,0.914136
11497,203479.2,272.277,267.16,0.911468
11509,203691.6,272.632,267.517,0.924183
11521,203904,272.985,267.873,0.930014
11533,204116.4,273.339,268.228,0.915358
11545,204328.8,273.694,268.583,0.878086
11557,204541.2,274.046,268.938,0.927821
11569,204753.6,274.402,269.293,0.970611
11581,204966,274.754,269.65,0.931121
11593,205178.4,275.108,270.004,1.000767
11605,205390.8,275.463,270.359,0.998879
11617,205603.2,275.818,270.715,0.950927
11629,205815.6,276.17,271.07,0.944505
11641,206028,276.524,271.427,0.963521
11653,206240.4,276.879,271.782,0.942455
11665,206452.8,277.2334,272.137,0.946476
11677,206665.2,277.585,272.492,0.943081
11689,206877.6,277.94,272.848,0.990466
11701,207090,278.294,273.202,0.969771
11713,207302.4,278.65,273.558,0.979203
11725,207514.8,279.004,273.915,0.985209
11737,207727.2,279.358,274.269,0.977515
11749,207939.6,279.713,274.626,0.960454
11761,208152,280.065,274.981,0.953274
11773,208364.4,280.418,275.336,0.957675
11785,208576.8,280.772,275.693,0.990698
11797,208789.2,281.127,276.047,1.008725
11809,209001.6,281.482,276.404,0.986304
11821,209214,281.836,276.759,0.978991
11833,209426.4,282.189,277.115,0.985503
11845,209638.8,282.544,277.471,0.985934
11857,209851.2,282.899,277.827,1.020761
11869,210063.6,283.253,278.182,1.012363
11881,210276,283.604,278.538,1.019066
11893,210488.4,283.957,278.894,1.03227
11905,210700.8,284.312,279.249,1.039787
11917,210913.2,284.667,279.605,1.029558
11929,211125.6,285.023,279.9596,1.02949
11941,211338,285.376,280.316,1.049504
11953,211550.4,285.729,280.672,1.065287
11965,211762.8,286.08,281.028,1.059484
11977,211975.2,286.432,281.382,1.072336
11989,212187.6,286.786,281.736,1.064041
12001,212400,287.141,282.091,1.083891
12013,212612.4,287.495,282.446,1.071122
12025,212824.8,287.849,282.8,1.086879
12037,213037.2,288.204,283.154,1.087903
12049,213249.6,288.562,283.508,1.081233
12061,213462,288.918,283.863,1.085538
12073,213674.4,289.275,284.219,1.100385
12085,213886.8,289.629,284.575,1.089432
12097,214099.2,289.982,284.931,1.077445
12109,214311.6,290.335,285.287,1.09709
12121,214524,290.688,285.643,1.083456
12133,214736.4,291.043,285.999,1.08624
12145,214948.8,291.396,286.355,1.098517
12157,215161.2,291.749,286.712,1.109292
12169,215373.6,292.103,287.067,1.125948
12181,215586,292.457,287.424,1.124395
12193,215798.4,292.81,287.78,1.119462
12205,216010.8,293.166,288.136,1.134723
12217,216223.2,293.518,288.492,1.137855
12229,216435.6,293.872,288.847,1.134426
12241,216648,294.226,289.203,1.150315
12253,216860.4,294.58,289.559,1.148029
12265,217072.8,294.934,289.915,1.163547
12277,217285.2,295.289,290.27,1.181402
12289,217497.6,295.642,290.625,1.194812
12301,217710,295.997,290.98,1.197097
12313,217922.4,296.35,291.335,1.234695
12325,218134.8,296.703,291.69,1.221373
12337,218347.2,297.057,292.044,1.201152
12349,218559.6,297.41,292.398,1.190384
12361,218772,297.766,292.751,1.195686
12373,218984.4,298.12,293.104,1.188676
12385,219196.8,298.474,293.457,1.19771
12397,219409.2,298.826,293.809,1.191664
12409,219621.6,299.181,294.159,1.204827
12421,219834,299.535,294.51,1.207469
12433,220046.4,299.89,294.861,1.222691
12445,220258.8,300.243,295.213,1.23232
12457,220471.2,300.598,295.569,1.246052
12469,220683.6,300.952,295.926,1.247981
12481,220896,301.307,296.285,1.249152
12493,221108.4,301.66,296.643,1.247364
12505,221320.8,302.014,297.001,1.254118
12517,221533.2,302.368,297.359,1.258727
12529,221745.6,302.722,297.716,1.263034
12541,221958,303.076,298.073,1.282648
12553,222170.4,303.43,298.431,1.291172
12565,222382.8,303.784,298.788,1.298488
12577,222595.2,304.137,299.145,1.295684
12589,222807.6,304.491,299.502,1.302198
12601,223020,304.845,299.858,1.306304
12613,223232.4,305.199,300.215,1.315102
12625,223444.8,305.554,300.571,1.322945
12637,223657.2,305.907,300.927,1.326848
12649,223869.6,306.26,301.283,1.339602
12661,224082,306.613,301.638,1.348433
12673,224294.4,306.968,301.994,1.349942
12685,224506.8,307.32,302.349,1.354421
12697,224719.2,307.675,302.704,1.362973
12709,224931.6,308.029,303.059,1.367067
12721,225144,308.381,303.414,1.370541
12733,225356.4,308.738,303.768,1.379945
12745,225568.8,309.092,304.123,1.388826
12757,225781.2,309.447,304.478,1.392092
12769,225993.6,309.8,304.833,1.400416
12781,226206,310.155,305.188,1.409977
12793,226418.4,310.51,305.544,1.417601
12805,226630.8,310.863,305.899,1.422105
12817,226843.2,311.218,306.256,1.432353
12829,227055.6,311.571,306.612,1.439623
12841,227268,311.926,306.968,1.446596
12853,227480.4,312.281,307.323,1.459172
12865,227692.8,312.633,307.679,1.46395
12877,227905.2,312.988,308.035,1.472622
12889,228117.6,313.341,308.391,1.482084
12901,228330,313.696,308.747,1.488592
12913,228542.4,314.049,309.103,1.497578
12925,228754.8,314.403,309.458,1.50355
12937,228967.2,314.757,309.814,1.512532
12949,229179.6,315.112,310.169,1.518047
12961,229392,315.467,310.525,1.528325
12973,229604.4,315.819,310.881,1.53826
12985,229816.8,316.174,311.236,1.540157
12997,230029.2,316.527,311.592,1.549234
13009,230241.6,316.881,311.947,1.557337
13021,230454,317.235,312.303,1.566482
13033,230666.4,317.589,312.658,1.572321
13045,230878.8,317.944,313.014,1.582433
13057,231091.2,318.297,313.369,1.591633
13069,231303.6,318.652,313.725,1.596372
13081,231516,319.005,314.08,1.606233
13093,231728.4,319.228,314.433,1.617025
13105,231940.8,319.206,314.765,1.622917
13117,232153.2,319.183,315.066,1.6095
13129,232365.6,319.172,315.341,1.594275
13141,232578,319.167,315.592,1.579919
13153,232790.4,319.167,315.821,1.569939
13165,233002.8,319.165,316.03,1.5585
13177,233215.2,319.165,316.221,1.55037
13189,233427.6,319.165,316.396,1.534913
13201,233640,319.164,316.555,1.522866
13213,233852.4,319.162,316.701,1.516232
13225,234064.8,319.161,316.835,1.50658
13237,234277.2,319.16,316.956,1.503405
13249,234489.6,319.16,317.068,1.495131
13261,234702,319.158,317.171,1.492615
13273,234914.4,319.158,317.264,1.489136
13285,235126.8,319.157,317.348,1.487401
13297,235339.2,319.156,317.426,1.483827
13309,235551.6,319.154,317.497,1.477898
13321,235764,319.154,317.562,1.477913
13333,235976.4,319.153,317.621,1.470861
13345,236188.8,319.154,317.674,1.470871
13357,236401.2,319.153,317.723,1.466588
13369,236613.6,319.154,317.768,1.467102
13381,236826,319.153,317.81,1.462226
13393,237038.4,319.154,317.848,1.463513
13405,237250.8,319.153,317.882,1.457149
13417,237463.2,319.153,317.913,1.458707
13429,237675.6,319.153,317.942,1.455297
13441,237888,319.151,317.968,1.452502
13453,238100.4,319.152,317.991,1.453928
13465,238312.8,319.151,318.013,1.450289
13477,238525.2,319.151,318.033,1.45308
13489,238737.6,319.15,318.051,1.446643
13501,238950,319.151,318.067,1.447245
13513,239162.4,319.151,318.082,1.443882
13525,239374.8,319.151,318.096,1.447484
13537,239587.2,319.15,318.108,1.44304
13549,239799.6,319.15,318.12,1.44755
13561,240012,319.15,318.13,1.443354
13573,240224.4,319.151,318.14,1.444925
13585,240436.8,319.151,318.148,1.441125
13597,240649.2,319.151,318.156,1.443592
13609,240861.6,319.15,318.164,1.43995
13621,241074,319.15,318.17,1.44482
13633,241286.4,319.15,318.177,1.441
13645,241498.8,319.15,318.182,1.443469
13657,241711.2,319.15,318.186,1.439584
13669,241923.6,319.149,318.191,1.441468
13681,242136,319.15,318.195,1.436004
13693,242348.4,319.149,318.199,1.438941
13705,242560.8,319.15,318.202,1.433521
13717,242773.2,319.15,318.206,1.43813
13729,242985.6,319.151,318.208,1.43464
13741,243198,319.151,318.211,1.43872
13753,243410.4,319.151,318.213,1.43802
13765,243622.8,319.1505,318.216,1.441167
13777,243835.2,319.15,318.218,1.439433
13789,244047.6,319.15,318.22,1.442721
13801,244260,319.15,318.222,1.438326
13813,244472.4,319.15,318.223,1.439287
13825,244684.8,319.15,318.225,1.434066
13837,244897.2,319.15,318.226,1.436174
13849,245109.6,319.15,318.227,1.432478
13861,245322,319.151,318.228,1.437055
13873,245534.4,319.15,318.229,1.433736
13885,245746.8,319.151,318.23,1.438003
13897,245959.2,319.15,318.231,1.43542
13909,246171.6,319.15,318.232,1.438828
13921,246384,319.15,318.232,1.434851
13933,246596.4,319.15,318.232,1.439778
13945,246808.8,319.15,318.234,1.437999
13957,247021.2,319.151,318.234,1.441216
13969,247233.6,319.15,318.234,1.438162
13981,247446,319.15,318.234,1.441795
13993,247658.4,319.15,318.235,1.436755
14005,247870.8,319.149,318.236,1.439133
14017,248083.2,319.15,318.236,1.436203
14029,248295.6,319.15,318.236,1.439706
14041,248508,319.15,318.236,1.435843
14053,248720.4,319.15,318.236,1.439807
14065,248932.8,319.15,318.237,1.436539
14077,249145.2,319.15,318.237,1.437338
14089,249357.6,319.151,318.237,1.434509
14101,249570,319.15,318.238,1.437
14113,249782.4,319.149,318.238,1.435172
14125,249994.8,319.15,318.238,1.435655
14137,250207.2,319.15,318.238,1.43813
14149,250419.6,319.15,318.238,1.437533
14161,250632,319.1505,318.238,1.440458
14173,250844.4,319.15,318.239,1.437657
14185,251056.8,319.15,318.239,1.440486
14197,251269.2,319.151,318.238,1.439344
14209,251481.6,319.15,318.239,1.441992
14221,251694,319.149,318.239,1.437066
14233,251906.4,319.149,318.239,1.438944
14245,252118.8,319.15,318.239,1.435559
14257,252331.2,319.15,318.238,1.439226
14269,252543.6,319.15,318.239,1.435052
14281,252756,319.151,318.239,1.439692
14293,252968.4,319.15,318.239,1.438409
14305,253180.8,319.151,318.239,1.442864
14317,253393.2,319.151,318.24,1.437509
14329,253605.6,319.15,318.239,1.439
14341,253818,319.15,318.24,1.437762
14353,254030.4,319.15,318.239,1.433595
14365,254242.8,319.15,318.24,1.438409
14377,254455.2,319.15,318.24,1.435243
14389,254667.6,319.149,318.239,1.440856
14401,254880,319.15,318.24,1.437611
14413,255092.4,319.15,318.24,1.442042
14425,255304.8,319.15,318.239,1.439596
14437,255517.2,319.15,318.24,1.439337
14449,255729.6,319.15,318.24,1.441688
14461,255942,319.152,318.24,1.437537
14473,256154.4,319.151,318.24,1.440664
14485,256366.8,319.15,318.24,1.442453
14497,256579.2,319.148,318.24,1.439691
14509,256791.6,319.149,318.241,1.449144
14521,257004,319.147,318.24,1.44851
14533,257216.4,319.147,318.239,1.443533
14545,257428.8,319.146,318.239,1.450208
14557,257641.2,319.148,318.238,1.451683
14569,257853.6,319.148,318.238,1.441853
14581,258066,319.148,318.237,1.440668
14593,258278.4,319.147,318.237,1.441972
14605,258490.8,319.149,318.235,1.445252
14617,258703.2,319.148,318.235,1.441985
14629,258915.6,319.15,318.235,1.436901
14641,259128,319.15,318.234,1.437684
14653,259340.4,319.15,318.233,1.433928
14665,259552.8,319.15,318.233,1.438781
14677,259765.2,319.15,318.233,1.44124
14689,259977.6,319.151,318.233,1.438051
14701,260190,319.151,318.233,1.435605
14713,260402.4,319.149,318.232,1.43565
14725,260614.8,319.151,318.232,1.441854
14737,260827.2,319.151,318.232,1.445081
14749,261039.6,319.152,318.232,1.437866
14761,261252,319.151,318.231,1.432816
14773,261464.4,319.151,318.232,1.440993
14785,261676.8,319.151,318.232,1.446375
14797,261889.2,319.151,318.232,1.444778
14809,262101.6,319.149,318.232,1.443085
14821,262314,319.148,318.232,1.441527
14833,262526.4,319.15,318.232,1.447421
14845,262738.8,319.15,318.232,1.443935
14857,262951.2,319.15,318.231,1.439971
14869,263163.6,319.149,318.231,1.440966
14881,263376,319.15,318.231,1.446787
14893,263588.4,319.15,318.23,1.443177
14905,263800.8,319.15,318.23,1.436906
14917,264013.2,319.149,318.231,1.444082
14929,264225.6,319.151,318.23,1.443992
14941,264438,319.15,318.23,1.434707
14953,264650.4,319.151,318.23,1.436265
14956,264703.5,319.15,318.23,1.437935