File: z_unorganized_archive/i_data_processed/z_KIV/mean_H2O-NH3_0g.csv
Index,Time(s),Furnace Temperature(K),Sample Temperature(K),HeatFlow(mW),Q_Corrected,T(K),Sample Temperature(K)_2
13683.3,242177,319.038,318.0,1.02518,1.02518,318.0,318.069
11224.2,198651,318.073,317.0,0.835424,0.835424,317.0,317.09
10342.5,183044,317.011,316.0,0.75486,0.75486,316.0,316.039
9678.97,171300,315.885,315.0,0.704955,0.704955,315.0,315.026
9409.0,166522,314.918,314.0,0.688971,0.688971,314.0,314.002
9428.37,166864,313.739,313.0,0.680844,0.680844,313.0,312.995
9895.07,175124.98,313.15,312.0,0.730551,0.730551,312.0,312.008
9872.07,174717.88,312.009,311.0,0.731401,0.731401,311.0,311.015
9849.07,174310.78,310.872,310.0,0.7300894,0.7300894,310.0,310.007
10042.9,177742,310.058,309.0,0.7482315,0.7482315,309.0,309
9952.74,176146,308.886,308.0,0.735492,0.735492,308.0,308.009
9995.68,176906,307.903,307.0,0.731084,0.731084,307.0,307.012
9971.68,176481,306.819,306.0,0.743102,0.743102,306.0,305.998
10171.5,180018,306.1,305.0,0.761122,0.761122,305.0,304.993
10146.5,179575,305.056,304.0,0.768784,0.768784,304.0,303.997
10121.5,179133,304.015,303.0,0.767784,0.767784,303.0,302.997
10096.5,178690,302.971,302.0,0.770855,0.770855,302.0,301.998
10010.6,177171,301.851,301.0,0.762928,0.762928,301.0,301.009
10047.3,177819,300.927,300.0,0.760768,0.760768,300.0,300.016
10022.3,177377,299.897,299.0,0.747584,0.747584,299.0,299.009
9997.28,176934,298.87,298.0,0.724424,0.724424,298.0,298.001
9972.28,176492,297.838,297.0,0.70704,0.70704,297.0,296.992
10174.5,180070.95,297.219,296.0,0.707621,0.707621,296.0,295.993
9922.07,175603,295.826,295.0,0.6725,0.6725,295.0,294.996
9897.07,175160,294.805,294.0,0.665494,0.665494,294.0,293.998
9872.07,174718,293.789,293.0,0.638039,0.638039,293.0,292.999
10071.1,178240,293.175,292.0,0.626277,0.626277,292.0,292.009
9821.86,173829,291.786,291.0,0.58198,0.58198,291.0,291.016
9796.86,173387,290.774,290.0,0.581298,0.581298,290.0,290.009
9771.86,172944,289.764,289.0,0.585951,0.585951,289.0,289.001
9746.86,172502,288.758,288.0,0.585386,0.585386,288.0,287.994
9941.83,175952.75,288.151,287.0,0.604921,0.604921,287.0,286.999
9696.65,171613,286.774,286.0,0.603989,0.603989,286.0,286.002
9671.65,171171,285.768,285.0,0.597169,0.597169,285.0,284.994
9646.65,170728,284.767,284.0,0.601522,0.601522,284.0,283.987
9564.64,169276,283.68,283.0,0.604827,0.604827,283.0,282.991
9597.44,169857,282.794,282.0,0.59704,0.59704,282.0,281.996
9572.44,169415,281.799,281.0,0.588322,0.588322,281.0,280.991
9547.44,168972,280.801,280.0,0.581151,0.581151,280.0,279.986
9522.44,168530,279.806,279.0,0.570058,0.570058,279.0,278.984
9497.44,168087,278.816,278.0,0.593689,0.593689,278.0,277.983
9416.71,166658,277.735,277.0,0.566688,0.566688,277.0,276.993
9448.23,167216,276.865,276.0,0.611315,0.611315,276.0,276.003
9423.23,166774,275.879,275.0,0.586625,0.586625,275.0,275.002
9198.27,162792,274.52,274.0,0.609179,0.609179,274.0,273.992
9373.44,165892,273.888,273.0,0.596627,0.596627,273.0,272.985
9293.79,164482,272.823,272.0,0.582868,0.582868,272.0,272.001
9126.59,161523,271.586,271.0,0.563262,0.563262,271.0,271.005
9299.44,164582,270.96,270.0,0.526062,0.526062,270.0,270
9078.36,160669,269.617,269.0,0.526891,0.526891,269.0,268.995
8997.28,159234,268.529,268.0,0.576367,0.576367,268.0,267.992
9225.65,163276,268.019,267.0,0.547684,0.547684,267.0,267.002
9006.91,159405,266.686,266.0,0.550264,0.550264,266.0,266.001
8926.51,157982,265.604,265.0,0.600521,0.600521,265.0,265.002
8959.68,158569,264.732,264.0,0.579693,0.579693,264.0,264.005
8935.68,158144,263.743,263.0,0.585668,0.585668,263.0,262.998
8911.68,157719,262.758,262.0,0.612696,0.612696,262.0,261.994
8832.21,156312,261.683,261.0,0.722718,0.722718,261.0,261.002
8864.45,156883,260.813,260.0,0.680785,0.680785,260.0,260.012
8660.6,153275,259.492,259.0,0.731628,0.731628,259.0,259.001
8816.68,156038,258.829,258.0,0.738433,0.738433,258.0,257.992
8557.0,151441,257.419,257.0,0.648526,0.648526,257.0,256.995
8769.68,155206,256.877,256.0,0.657016,0.657016,256.0,256.001
8568.87,151651.24,255.567,255.0,0.675075,0.675075,255.0,254.996
8721.91,154360,254.907,254.0,0.641031,0.641031,254.0,253.994
8466.25,149834.925,253.509,253.0,0.695826,0.695826,253.0,253.006
8500.38,150439,252.635,252.0,0.721016,0.721016,252.0,252.007
8477.38,150032,251.646,251.0,0.754094,0.754094,251.0,250.998
8454.38,149625,250.656,250.0,0.76231,0.76231,250.0,249.991
8376.0,148237,249.567,249.0,0.682208,0.682208,249.0,248.996
8409.13,148824,248.687,248.0,0.717079,0.717079,248.0,248.004
8386.13,148417,247.691,247.0,0.740784,0.740784,247.0,247.001
8363.13,148010,246.703,246.0,0.78471,0.78471,246.0,245.998
8285.75,146640,245.622,245.0,0.755673,0.755673,245.0,245.006
8156.85,144359,244.426,244.0,0.706751,0.706751,244.0,244.005
8295.13,146806.16,243.729,243.0,0.812956,0.812956,243.0,242.996
8272.13,146399.06,242.748,242.0,0.770443,0.770443,242.0,241.997
8034.6,142194.72,241.357,241.0,0.846488,0.846488,241.0,240.998
8227.13,145602.56,240.782,240.0,0.837963,0.837963,240.0,240.003
8046.8,142411,239.492,239.0,0.75719,0.75719,239.0,238.998
8181.38,144793,238.815,238.0,0.831814,0.831814,238.0,237.995
7947.87,140659.54,237.444,237.0,0.664346,0.664346,237.0,237.004
7981.28,141251,236.574,236.0,0.71772,0.71772,236.0,236.006
7959.28,140862,235.596,235.0,0.811032,0.811032,235.0,234.999
7937.28,140472,234.622,234.0,0.629031,0.629031,234.0,233.994
7861.67,139133.8,233.557,233.0,0.624384,0.624384,233.0,233.002
7748.43,137129,232.412,232.0,0.608894,0.608894,232.0,232.001
7872.28,139322,231.712,231.0,0.793125,0.793125,231.0,230.993
7651.35,135411,230.366,230.0,0.762032,0.762032,230.0,229.998
7829.28,138561,229.784,229.0,0.734551,0.734551,229.0,229.005
7664.6,135646,228.537,228.0,0.58433,0.58433,228.0,228.003
7589.63,134319,227.46,227.0,0.578315,0.578315,227.0,227.005
7623.32,134915,226.588,226.0,0.57237,0.57237,226.0,226.009
7602.32,134543,225.608,225.0,0.581035,0.581035,225.0,225.004
7392.57,130831,224.265,224.0,0.774517,0.774517,224.0,224.001
7561.32,133818,223.655,223.0,0.651154,0.651154,223.0,222.999
7540.32,133446,222.681,222.0,0.520728,0.520728,222.0,222
7333.57,129787,221.349,221.0,0.574988,0.574988,221.0,221.004
7368.25,130400,220.469,220.0,0.565284,0.565284,220.0,220.001
7348.25,130046.325,219.477,219.0,0.503091,0.503091,219.0,218.99
7406.46,131077,218.658,218.0,0.556831,0.556831,218.0,218.001
7308.67,129346,217.53,217.0,0.642237,0.642237,217.0,217.014
7288.67,128992,216.539,216.0,0.525718,0.525718,216.0,216.006
7216.47,127714,215.456,215.0,0.628288,0.628288,215.0,215.01
7127.8,126144,214.334,214.0,0.42219,0.42219,214.0,214.006
7229.67,127947,213.578,213.0,0.448459,0.448459,213.0,212.993
7158.36,126685,212.504,212.0,0.489579,0.489579,212.0,212.003
7070.88,125137,211.398,211.0,0.625226,0.625226,211.0,211.006
7170.67,126903,210.658,210.0,0.545594,0.545594,210.0,210
7032.57,124459,209.441,209.0,0.430497,0.430497,209.0,208.998
6962.06,123211,208.355,208.0,0.430313,0.430313,208.0,207.999
6995.27,123798,207.486,207.0,0.433499,0.433499,207.0,207
6976.27,123462,206.503,206.0,0.251057,0.251057,206.0,205.991
6906.69,122231,205.426,205.0,0.183556,0.183556,205.0,204.998
6938.96,122802,204.553,204.0,0.23769,0.23769,204.0,204.007
6810.66,120531,203.337,203.0,0.3155332,0.3155332,203.0,202.996
6851.625,121256,202.483,202.0,0.238903,0.238903,202.0,201.995
6775.02,119900,201.38,201.0,0.182039,0.182039,201.0,200.997
6815.25,120612,200.521,200.0,0.0321771,0.0321771,200.0,200.002
6739.38,119269.326,199.425,199.0,0.0316538,0.0316538,199.0,199.008
6721.38,118950.726,198.437,198.0,0.00874146,0.00874146,198.0,197.997
6654.14,117761,197.365,197.0,-0.120278,-0.120278,197.0,196.997
6686.06,118326,196.497,196.0,-0.0438669,-0.0438669,196.0,196.001
6619.47,117147,195.413,195.0,-0.1769,-0.1769,195.0,195.007
6551.67,115946.8,194.314,194.0,-0.302576,-0.302576,194.0,194.004
6633.06,117387,193.534,193.0,-0.283252,-0.283252,193.0,192.994
6567.45,116226,192.459,192.0,-0.374403,-0.374403,192.0,192.004
6500.67,115044.1,191.358,191.0,-0.379034,-0.379034,191.0,191.004
6533.1,115618,190.472,190.0,-0.412781,-0.412781,190.0,190.005
6467.0,114448,189.381,189.0,-0.577025,-0.577025,189.0,189.008
6450.0,114147.3,188.379,188.0,-0.619865,-0.619865,188.0,187.993
6481.41,114703,187.516,187.0,-0.55028,-0.55028,187.0,187.001
6416.33,113551,186.453,186.0,-0.636243,-0.636243,186.0,186.012
6309.88,111667,185.275,185.0,-0.653096,-0.653096,185.0,184.999
6382.67,112955.5,184.49,184.0,-0.557798,-0.557798,184.0,183.99
6320.08,111848,183.431,183.0,-0.507168,-0.507168,183.0,183.004
6261.85,110817,182.364,182.0,-0.616898,-0.616898,182.0,182.011
6245.85,110534,181.377,181.0,-0.719758,-0.719758,181.0,181.004
6229.85,110251,180.399,180.0,-0.708094,-0.708094,180.0,179.999
6213.85,109967,179.414,179.0,-0.681004,-0.681004,179.0,178.996
6197.85,109684,178.434,178.0,-0.675779,-0.675779,178.0,177.996
6100.89,107968,177.254,177.0,-0.532795,-0.532795,177.0,176.99
6122.24,108346,176.357,176.0,-0.577594,-0.577594,176.0,175.994
6071.17,107442,175.287,175.0,-0.661876,-0.661876,175.0,174.999
6135.19,108575,174.489,174.0,-0.718215,-0.718215,174.0,173.995
5997.23,106133,173.245,173.0,-0.676122,-0.676122,173.0,173.006
6026.45,106651,172.374,172.0,-0.74346,-0.74346,172.0,172.01
6011.45,106385,171.393,171.0,-0.69494,-0.69494,171.0,171.008
5922.87,104817,170.247,170.0,-0.607683,-0.607683,170.0,170.002
5981.81,105860,169.44,169.0,-0.644997,-0.644997,169.0,168.999
5894.5,104314.95,168.262,168.0,-0.734578,-0.734578,168.0,167.996
5838.55,103325,167.174,167.0,-0.689951,-0.689951,167.0,166.995
5867.13,103830,166.305,166.0,-0.668501,-0.668501,166.0,165.997
5853.13,103583,165.335,165.0,-0.761552,-0.761552,165.0,164.993
5839.13,103335,164.353,164.0,-0.695103,-0.695103,164.0,163.995
5825.13,103087,163.329,163.0,-0.658066,-0.658066,163.0,162.994
5771.06,102130,162.222,162.0,-0.621405,-0.621405,162.0,162.001
5797.76,102603,161.353,161.0,-0.585997,-0.585997,161.0,161.01
5719.02,101209,160.215,160.0,-0.670043,-0.670043,160.0,160.003
5706.02,100979,159.265,159.0,-0.602115,-0.602115,159.0,158.994
5693.02,100749,158.336,158.0,-0.766078,-0.766078,158.0,157.993
5619.43,99446.2,157.231,157.0,-0.816961,-0.816961,157.0,156.992
5629.17,99618.55,156.265,156.0,-0.740328,-0.740328,156.0,156.001
5595.64,99025.2,155.17,155.0,-0.688459,-0.688459,155.0,155.005
5642.4,99852.8,154.328,154.0,-0.610948,-0.610948,154.0,153.997
5571.25,98593.425,153.207,153.0,-0.620026,-0.620026,153.0,152.995
5559.25,98381,152.239,152.0,-0.765729,-0.765729,152.0,151.99
5547.25,98168.625,151.259,151.0,-0.746748,-0.746748,151.0,150.989
5535.25,97956.2,150.268,150.0,-0.689416,-0.689416,150.0,149.99
5523.25,97743.825,149.281,149.0,-0.724627,-0.724627,149.0,148.994
5458.14,96591.4,148.134,148.0,-0.771113,-0.771113,148.0,147.99
5499.64,97326,147.28,147.0,-0.772886,-0.772886,147.0,146.987
5487.64,97113.6,146.295,146.0,-0.741938,-0.741938,146.0,145.995
5424.33,95993.0,145.114,145.0,-0.749463,-0.749463,145.0,144.993
5464.04,96695.7,144.238,144.0,-0.718595,-0.718595,144.0,143.988
5452.04,96483.3,143.277,143.0,-0.752028,-0.752028,143.0,142.995
5390.53,95394.6,142.119,142.0,-0.731885,-0.731885,142.0,141.997
5428.43,96065.5,141.262,141.0,-0.847712,-0.847712,141.0,140.997
5368.12,94998.1,140.173,140.0,-0.815605,-0.815605,140.0,140.003
5357.12,94803.4,139.231,139.0,-0.831088,-0.831088,139.0,139.008
5300.67,93804.2,138.127,138.0,-0.8318,-0.8318,138.0,138.011
5321.1,94165.8,137.208,137.0,-0.814269,-0.814269,137.0,137.002
5324.33,94223.0,136.242,136.0,-0.844567,-0.844567,136.0,136.001
5269.67,93255.5,135.13,135.0,-0.891383,-0.891383,135.0,135.007
5218.08,92342.4,134.023,134.0,-0.833229,-0.833229,134.0,134.002
5250.09,92908.8,133.202,133.0,-0.832294,-0.832294,133.0,133.003
5228.25,92522.325,132.192,132.0,-0.8987,-0.8987,132.0,132.002
5190.08,91846.8,131.108,131.0,-0.814162,-0.814162,131.0,130.997
5181.08,91687.5,130.125,130.0,-0.830382,-0.830382,130.0,130.004
5134.73,90867.08,129.022,129.0,-0.750025,-0.750025,129.0,129.003
5190.42,91852.675,128.241,128.0,-0.800849,-0.800849,128.0,128
5117.73,90566.18,127.079,127.0,-0.812285,-0.812285,127.0,127.001
5075.3,89815,126.052,126.0,-0.862163,-0.862163,126.0,126.004
5061.56,89571.8,125.081,125.0,-0.88591,-0.88591,125.0,124.999
5054.56,89447.9,124.118,124.0,-0.82612,-0.82612,124.0,123.989
5022.44,88879.4,123.084,123.0,-0.8013,-0.8013,123.0,122.995
4982.08,88165.1,122.036,122.0,-0.758116,-0.758116,122.0,121.998
4952.72,87645.4,120.982,121.0,-0.772243,-0.772243,121.0,120.994
4972.62,87997.6,120.132,120.0,-0.798323,-0.798323,120.0,119.999
4941.05,87438.8,119.068,119.0,-0.761396,-0.761396,119.0,119.002
4911.81,86921.3,118.039,118.0,-0.757274,-0.757274,118.0,118
4884.84,86443.9,116.997,117.0,-0.793717,-0.793717,117.0,116.998
4860.09,86005.8,116.005,116.0,-0.79607,-0.79607,116.0,115.998
4837.5,85606.05,114.982,115.0,-0.735247,-0.735247,115.0,115.001
4817.6,85253.9,113.992,114.0,-0.789685,-0.789685,114.0,113.995
4779.81,84584.9,112.962,113.0,-0.723856,-0.723856,113.0,112.998
4750.05,84058.2,111.961,112.0,-0.729995,-0.729995,112.0,112.005
4757.32,84186.8,110.979,111.0,-0.738111,-0.738111,111.0,110.998
4762.32,84275.3,109.987,110.0,-0.723139,-0.723139,110.0,109.993
4754.99,84145.6,109,109.0,-0.742139,-0.742139,109.0,108.998
4721.35,83550.2,107.901,108.0,-0.69592,-0.69592,108.0,107.999
4724.5,83605.95,106.973,107.0,-0.707648,-0.707648,107.0,107.001
4719.25,83513.025,105.933,106.0,-0.7078,-0.7078,106.0,106
4748.8,84036.1,104.955,105.0,-0.69067,-0.69067,105.0,104.991
4766.35,84346.6,103.901,104.0,-0.676691,-0.676691,104.0,103.986
4785.55,84686.5,102.915,103.0,-0.673118,-0.673118,103.0,102.981
4914.87,86975.5,101.898,102.0,-0.656758,-0.656758,102.0,101.966
5276.29,93372.6,100.865,101.0,-0.609921,-0.609921,101.0,101.019
4845.17,85741.9,99.8262,100.0,-0.607233,-0.607233,100.0,99.9868