File: i_data/26C/H2O-NH3_4.5202g.csv
H2O-NH3 10wt% Specific Heat - Large HF,,,,
Creation Date : 9/16/2022 10:06:11 AM,,,,
User : admin,,,,
,,,,
HeatFlow :,,,,
 Initial Mass : 4520.2 mg,,,,
 Molar Mass : 17 g/mol,,,,
,,,,
Index,Time(s),Furnace Temperature(K),Sample Temperature(K),HeatFlow(mW)
1,0,298.693,298.557,273.839
13,202.8,298.656,298.573,138.482
25,405.6,298.638,298.585,69.5166
37,608.4,298.623,298.592,34.2218
49,811.2,298.606,298.596,16.1699
61,1014,298.578,298.597,6.982934
73,1216.8,298.523,298.597,2.371904
85,1419.6,298.423,298.589,0.259373
97,1622.4,298.259,298.571,-0.354928
109,1825.2,298.015,298.54,-0.22456
121,2028,297.674,298.488,0.482426
133,2230.8,297.214,298.406,1.738553
145,2433.6,296.591,298.289,3.575311
157,2636.4,295.773,298.122,6.110393
169,2839.2,294.756,297.893,9.52865
181,3042,293.567,297.593,13.9597
193,3244.8,292.244,297.213,19.4068
205,3447.6,290.825,296.753,25.7299
217,3650.4,289.34,296.211,32.6635
229,3853.2,287.811,295.59,39.9456
241,4056,286.255,294.894,47.3729
253,4258.8,284.695,294.129,54.7406
265,4461.6,283.148,293.305,61.81497
277,4664.4,281.622,292.429,68.2956
289,4867.2,280.124,291.504,74.1521
301,5070,278.65,290.53,79.6547
313,5272.8,277.2,289.515,84.7607
325,5475.6,275.774,288.466,89.3607
337,5678.4,274.368,287.389,93.3929
349,5881.2,272.985,286.287,96.8953
361,6084,271.626,285.166,99.8715
373,6286.8,270.288,284.029,102.389
385,6489.6,268.973,282.878,104.494
397,6692.4,267.672,281.716,106.228
409,6895.2,266.391,280.547,107.651
421,7098,265.128,279.373,108.764
433,7300.8,263.882,278.194,109.683
445,7503.6,262.653,277.013,110.404
457,7706.4,261.438,275.831,110.888
469,7909.2,260.236,274.651,111.349
481,8112,259.05,273.471,111.521
493,8314.8,257.877,272.293,111.537
505,8517.6,256.718,271.12,111.524
517,8720.4,255.572,269.952,111.389
529,8923.2,254.438,268.787,110.957
541,9126,253.313,267.629,110.567
553,9328.8,252.196,266.475,110.013
565,9531.6,251.088,265.327,109.444
577,9734.4,249.992,264.186,109.051
589,9937.2,248.909,263.051,108.71
601,10140,247.841,261.924,107.914
613,10342.8,246.785,260.803,107.115
625,10545.6,245.738,259.691,106.234
637,10748.4,244.698,258.586,105.544
649,10951.2,243.666,257.489,104.817
661,11154,242.646,256.4,103.81
673,11356.8,241.635,255.318,102.995
685,11559.6,240.635,254.245,102.253
697,11762.4,239.644,253.18,101.493
709,11965.2,238.658,252.124,100.873
721,12168,237.677,251.074,100.018
733,12370.8,236.699,250.032,99.4993
745,12573.6,235.726,248.999,98.7312
757,12776.4,234.762,247.971,98.10409
769,12979.2,233.808,246.951,108.911
781,13182,232.863,245.962,755.743
793,13384.8,231.928,244.975,615.505
805,13587.6,231.003,243.989,462.223
817,13790.4,230.088,243.005,345.675
829,13993.2,229.181,242.026,266.212
841,14196,228.279,241.05,213.949
853,14398.8,227.386,240.083,180.304
865,14601.6,226.4979,239.123,157.362
877,14804.4,225.612,238.169,141.328
889,15007.2,224.727,237.22,129.68
901,15210,223.847,236.279,121.586
913,15412.8,222.973,235.344,115.705
925,15615.6,222.105,234.415,109.62
937,15818.4,221.247,233.494,104.71
949,16021.2,220.397,232.578,100.511
961,16224,219.554,231.668,96.9364
973,16426.8,218.72,230.767,93.16554
985,16629.6,217.894,229.87,89.8411
997,16832.4,217.071,228.982,86.8344
1009,17035.2,216.256,228.1,84.2672
1021,17238,215.443,227.226,81.427
1033,17440.8,214.635,226.355,79.1404
1045,17643.6,213.836,225.492,77.3096
1057,17846.4,213.043,224.635,75.1197
1069,18049.2,212.256,223.785,73.6726
1081,18252,211.4746,222.94,71.9468
1093,18454.8,210.698,222.102,70.3466
1105,18657.6,209.929,221.27,68.3427
1117,18860.4,209.169,220.445,66.5373
1129,19063.2,208.415,219.625,64.3566
1141,19266,207.667,218.811,63.02937
1153,19468.8,206.926,218.004,61.7683
1165,19671.6,206.189,217.204,60.45548
1177,19874.4,205.458,216.409,59.54063
1189,20077.2,204.732,215.62,57.6477
1201,20280,204.011,214.838,56.36817
1213,20482.8,203.298,214.061,55.0319
1225,20685.6,202.59,213.29,53.8723
1237,20888.4,201.888,212.525,52.7855
1249,21091.2,201.187,211.764,52.2029
1261,21294,200.494,211.011,51.0236
1273,21496.8,199.809,210.262,50.2153
1285,21699.6,199.13,209.518,49.297
1297,21902.4,198.458,208.782,48.184
1309,22105.2,197.79,208.051,47.4874
1321,22308,197.125,207.326,46.8476
1333,22510.8,196.467,206.605,45.8979
1345,22713.6,195.813,205.891,44.9307
1357,22916.4,195.161,205.181,44.0763
1369,23119.2,194.519,204.478,44.07014
1381,23322,193.882,203.779,43.1079
1393,23524.8,193.251,203.086,42.3552
1405,23727.6,192.624,202.398,41.5898
1417,23930.4,191.999,201.717,41.0686
1429,24133.2,191.3795,201.039,40.117
1441,24336,190.771,200.367,39.3604
1453,24538.8,190.17,199.7,38.451
1465,24741.6,189.578,199.039,38.1186
1477,24944.4,188.99,198.385,37.6702
1489,25147.2,188.405,197.735,37.0312
1501,25350,187.825,197.09,36.166
1513,25552.8,187.245,196.451,35.7855
1525,25755.6,186.667,195.817,35.069
1537,25958.4,186.089,195.188,34.6738
1549,26161.2,185.512,194.562,33.8698
1561,26364,184.939,193.941,33.7982
1573,26566.8,184.369,193.325,33.13403
1585,26769.6,183.803,192.712,33.0098
1597,26972.4,183.245,192.104,32.5274
1609,27175.2,182.695,191.499,31.9617
1621,27378,182.151,190.899,31.5728
1633,27580.8,181.613,190.304,31.202
1645,27783.6,181.08,189.7135,30.7599
1657,27986.4,180.551,189.128,29.8869
1669,28189.2,180.026,188.547,29.83442
1681,28392,179.505,187.971,29.6833
1693,28594.8,178.986,187.399,29.1594
1705,28797.6,178.471,186.831,28.4978
1717,29000.4,177.958,186.268,28.3472
1729,29203.2,177.449,185.708,28.2365
1741,29406,176.941,185.153,28.2364
1753,29608.8,176.438,184.601,27.7497
1765,29811.6,175.938,184.054,27.0209
1777,30014.4,175.44,183.51,26.9834
1789,30217.2,174.948,182.97,25.9969
1801,30420,174.459,182.434,25.8201
1813,30622.8,173.972,181.901,25.2551
1825,30825.6,173.488,181.373,25.56977
1837,31028.4,173.008,180.848,25.2959
1849,31231.2,172.531,180.327,24.8098
1861,31434,172.055,179.809,24.5392
1873,31636.8,171.582,179.294,24.4383
1885,31839.6,171.112,178.783,23.738
1897,32042.4,170.644,178.275,23.2069
1909,32245.2,170.18,177.77,23.3289
1921,32448,169.72,177.268,23.288
1933,32650.8,169.263,176.77,22.9863
1945,32853.6,168.808,176.275,22.8304
1957,33056.4,168.356,175.784,22.6235
1969,33259.2,167.907,175.294,22.6617
1981,33462,167.459,174.809,22.2991
1993,33664.8,167.016,174.327,22.2253
2005,33867.6,166.575,173.848,22.0542
2017,34070.4,166.136,173.371,21.7561
2029,34273.2,165.701,172.898,21.3085
2041,34476,165.269,172.427,21.0548
2053,34678.8,164.841,171.959,21.1271
2065,34881.6,164.415,171.496,20.7845
2077,35084.4,163.995,171.035,20.4904
2089,35287.2,163.579,170.576,20.52118
2101,35490,163.166,170.121,20.3147
2113,35692.8,162.755,169.669,19.9723
2125,35895.6,162.346,169.221,19.8589
2137,36098.4,161.94,168.775,19.5331
2149,36301.2,161.537,168.333,19.2588
2161,36504,161.134,167.893,19.1258
2173,36706.8,160.732,167.455,18.76417
2185,36909.6,160.33,167.021,18.73
2197,37112.4,159.93,166.589,18.7323
2209,37315.2,159.531,166.159,18.3687
2221,37518,159.135,165.732,18.05014
2233,37720.8,158.739,165.308,18.0059
2245,37923.6,158.343,164.885,17.801
2257,38126.4,157.947,164.464,17.3854
2269,38329.2,157.552,164.045,17.5198
2281,38532,157.159,163.629,17.3981
2293,38734.8,156.766,163.213,17.44862
2305,38937.6,156.378,162.8,17.43206
2317,39140.4,155.992,162.389,17.3352
2329,39343.2,155.612,161.981,17.283
2341,39546,155.237,161.574,17.0233
2353,39748.8,154.865,161.169,16.9162
2365,39951.6,154.495,160.767,16.4513
2377,40154.4,154.13,160.369,16.3478
2389,40357.2,153.767,159.971,16.1905
2401,40560,153.407,159.576,16.1772
2413,40762.8,153.048,159.185,16.2139
2425,40965.6,152.69,158.795,15.995
2437,41168.4,152.334,158.408,15.6947
2449,41371.2,151.979,158.023,15.5043
2461,41574,151.624,157.64,15.3697
2473,41776.8,151.271,157.259,15.4991
2485,41979.6,150.919,156.88,15.1387
2497,42182.4,150.567,156.503,15.4271
2509,42385.2,150.21,156.128,15.2143
2521,42588,149.854,155.755,15.3176
2533,42790.8,149.5,155.382,15.2192
2545,42993.6,149.154,155.011,14.8253
2557,43196.4,148.813,154.6425,14.7136
2569,43399.2,148.48,154.276,14.3898
2581,43602,148.149,153.912,14.1515
2593,43804.8,147.815,153.55,14.307
2605,44007.6,147.478,153.189,14.1951
2617,44210.4,147.143,152.831,14.21063
2629,44413.2,146.811,152.475,14.0953
2641,44616,146.483,152.12,13.7982
2653,44818.8,146.159,151.766,13.954
2665,45021.6,145.838,151.415,13.9188
2677,45224.4,145.52,151.068,13.6239
2689,45427.2,145.205,150.72,13.5039
2701,45630,144.895,150.377,13.2739
2713,45832.8,144.588,150.035,13.1151
2725,46035.6,144.284,149.696,13.1628
2737,46238.4,143.984,149.359,13.10517
2749,46441.2,143.686,149.025,12.8141
2761,46644,143.388,148.694,13.0133
2773,46846.8,143.092,148.365,12.6821
2785,47049.6,142.798,148.036,12.7021
2797,47252.4,142.507,147.7116,12.4425
2809,47455.2,142.22,147.389,12.3065
2821,47658,141.934,147.069,12.1412
2833,47860.8,141.65,146.751,11.8759
2845,48063.6,141.37,146.435,11.6483
2857,48266.4,141.098,146.123,11.70577
2869,48469.2,140.83,145.813,11.6944
2881,48672,140.566,145.506,11.406
2893,48874.8,140.302,145.201,11.3785
2905,49077.6,140.036,144.9,11.5345
2917,49280.4,139.77,144.6,11.34016
2929,49483.2,139.505,144.3021,11.1813
2941,49686,139.24,144.008,10.9575
2953,49888.8,138.977,143.714,10.9791
2965,50091.6,138.71,143.423,10.8058
2977,50294.4,138.437,143.133,10.95114
2989,50497.2,138.162,142.844,10.9294
3001,50700,137.889,142.557,10.8517
3013,50902.8,137.622,142.271,10.5966
3025,51105.6,137.359,141.985,10.2927
3037,51308.4,137.098,141.701,10.2922
3049,51511.2,136.841,141.419,10.2978
3061,51714,136.585,141.138,10.1481
3073,51916.8,136.324,140.86,10.2801
3085,52119.6,136.053,140.582,10.1342
3097,52322.4,135.771,140.304,9.973417
3109,52525.2,135.48,140.025,10.1474
3121,52728,135.177,139.747,10.0993
3133,52930.8,134.869,139.465,10.1784
3145,53133.6,134.569,139.1827,10.0228
3157,53336.4,134.284,138.899,10.0816
3169,53539.2,134.016,138.617,10.2046
3181,53742,133.744,138.335,10.144
3193,53944.8,133.459,138.053,10.1119
3205,54147.6,133.171,137.772,10.0191
3217,54350.4,132.889,137.489,9.852868
3229,54553.2,132.626,137.209,9.91644
3241,54756,132.376,136.929,9.996944
3253,54958.8,132.12,136.651,9.832611
3265,55161.6,131.854,136.374,9.804691
3277,55364.4,131.588,136.098,9.914029
3289,55567.2,131.33,135.822,9.747207
3301,55770,131.089,135.549,9.730282
3313,55972.8,130.857,135.277,9.717199
3325,56175.6,130.616,135.008,9.586709
3337,56378.4,130.362,134.741,9.597898
3349,56581.2,130.103,134.474,9.533034
3361,56784,129.851,134.207,9.331006
3373,56986.8,129.614,133.943,9.243591
3385,57189.6,129.39,133.68,9.066606
3397,57392.4,129.165,133.42,8.981289
3409,57595.2,128.937,133.162,8.971208
3421,57798,128.696,132.906,8.873565
3433,58000.8,128.443,132.65,8.842284
3445,58203.6,128.19,132.394,8.818761
3457,58406.4,127.951,132.139,8.731761
3469,58609.2,127.729,131.885,8.793762
3481,58812,127.523,131.6341,8.666845
3493,59014.8,127.317,131.386,8.57006
3505,59217.6,127.101,131.14,8.499433
3517,59420.4,126.881,130.896,8.391094
3529,59623.2,126.651,130.654,8.354714
3541,59826,126.411,130.411,8.27661
3553,60028.8,126.175,130.168,8.245452
3565,60231.6,125.95,129.927,8.231347
3577,60434.4,125.746,129.687,8.201589
3589,60637.2,125.544,129.45,8.191583
3601,60840,125.332,129.214,8.047727
3613,61042.8,125.118,128.979,7.911157
3625,61245.6,124.912,128.747,7.843097
3637,61448.4,124.719,128.517,7.644275
3649,61651.2,124.542,128.29,7.605248
3661,61854,124.367,128.065,7.568471
3673,62056.8,124.179,127.843,7.44525
3685,62259.6,123.977,127.624,7.299775
3697,62462.4,123.776,127.404,7.243715
3709,62665.2,123.585,127.186,7.258977
3721,62868,123.408,126.971,7.168381
3733,63070.8,123.236,126.758,7.000114
3745,63273.6,123.053,126.548,6.844406
3757,63476.4,122.857,126.338,6.797609
3769,63679.2,122.658,126.129,6.763235
3781,63882,122.469,125.921,6.686235
3793,64084.8,122.294,125.714,6.68207
3805,64287.6,122.122,125.511,6.604068
3817,64490.4,121.941,125.308,6.560074
3829,64693.2,121.76,125.107,6.483885
3841,64896,121.587,124.908,6.420395
3853,65098.8,121.43,124.71,6.370477
3865,65301.6,121.285,124.515,6.293574
3877,65504.4,121.155,124.325,6.113816
3889,65707.2,121.028,124.138,6.079374
3901,65910,120.882,123.954,5.950531
3913,66112.8,120.719,123.771,5.86693
3925,66315.6,120.551,123.59,5.837576
3937,66518.4,120.389,123.409,5.651377
3949,66721.2,120.229,123.23,5.526139
3961,66924,120.057,123.051,5.553698
3973,67126.8,119.878,122.873,5.524017
3985,67329.6,119.701,122.695,5.49943
3997,67532.4,119.535,122.517,5.452806
4009,67735.2,119.378,122.341,5.409166
4021,67938,119.21,122.165,5.321918
4033,68140.8,119.033,121.989,5.299234
4045,68343.6,118.855,121.814,5.314053
4057,68546.4,118.686,121.638,5.298518
4069,68749.2,118.532,121.463,5.271668
4081,68952,118.388,121.291,5.19493
4093,69154.8,118.232,121.119,5.136425
4105,69357.6,118.065,120.947,5.189434
4117,69560.4,117.895,120.776,5.114017
4129,69763.2,117.733,120.606,5.60325
4141,69966,117.587,120.435,5.385755
4153,70168.8,117.449,120.268,5.178711
4165,70371.6,117.301,120.101,4.99147
4177,70574.4,117.141,119.936,4.995717
4189,70777.2,116.981,119.771,4.908379
4201,70980,116.83,119.606,4.850553
4213,71182.8,116.693,119.443,4.828674
4225,71385.6,116.563,119.281,4.77754
4237,71588.4,116.419,119.12,4.692411
4249,71791.2,116.263,118.961,4.685369
4261,71994,116.103,118.801,4.648202
4273,72196.8,115.951,118.643,4.644602
4285,72399.6,115.814,118.484,4.571534
4297,72602.4,115.694,118.328,4.532268
4309,72805.2,115.577,118.174,4.476704
4321,73008,115.449,118.022,4.357788
4333,73210.8,115.31,117.87,4.255672
4345,73413.6,115.171,117.72,4.196023
4357,73616.4,115.042,117.57,4.214106
4369,73819.2,114.923,117.423,4.13771
4381,74022,114.805,117.276,4.079144
4393,74224.8,114.675,117.132,4.011546
4405,74427.6,114.538,116.988,3.944105
4417,74630.4,114.391,116.844,3.940237
4429,74833.2,114.23,116.7,3.899024
4441,75036,114.059,116.5539,3.880022
4453,75238.8,113.892,116.406,3.898197
4465,75441.6,113.738,116.258,3.927719
4477,75644.4,113.606,116.111,3.900707
4489,75847.2,113.494,115.965,3.830078
4501,76050,113.385,115.821,3.788786
4513,76252.8,113.266,115.679,3.794273
4525,76455.6,113.145,115.538,3.738459
4537,76658.4,113.027,115.399,3.703749
4549,76861.2,112.923,115.261,3.647365
4561,77064,112.835,115.126,3.573409
4573,77266.8,112.754,114.994,3.471926
4585,77469.6,112.663,114.865,3.372904
4597,77672.4,112.558,114.736,3.30616
4609,77875.2,112.447,114.61,3.238043
4621,78078,112.338,114.485,3.178223
4633,78280.8,112.24,114.361,3.123097
4645,78483.6,112.155,114.239,3.070243
4657,78686.4,112.071,114.12,3.0085
4669,78889.2,111.979,114.002,2.918506
4681,79092,111.885,113.886,2.886699
4693,79294.8,111.799,113.772,2.839686
4705,79497.6,111.737,113.659,2.769839
4717,79700.4,111.693,113.552,2.704028
4729,79903.2,111.655,113.447,2.603168
4741,80106,111.618,113.347,2.486609
4753,80308.8,111.58,113.25,2.398684
4765,80511.6,111.541,113.158,2.278646
4777,80714.4,111.492,113.069,2.193991
4789,80917.2,111.428,112.981,2.145439
4801,81120,111.358,112.894,2.077927
4813,81322.8,111.292,112.809,2.037134
4825,81525.6,111.22,112.725,1.994133
4837,81728.4,111.131,112.641,1.949865
4849,81931.2,111.03,112.556,1.931196
4861,82134,110.928,112.47,1.932394
4873,82336.8,110.835,112.383,1.944298
4885,82539.6,110.758,112.297,1.942742
4897,82742.4,110.697,112.211,1.944243
4909,82945.2,110.631,112.127,1.920915
4921,83148,110.546,112.043,1.888978
4933,83350.8,110.446,111.959,1.871413
4945,83553.6,110.344,111.874,1.868889
4957,83756.4,110.248,111.788,1.870351
4969,83959.2,110.165,111.701,1.876437
4981,84162,110.087,111.616,1.867763
4993,84364.8,110.003,111.529,1.87785
5005,84567.6,109.914,111.443,1.863937
5017,84770.4,109.829,111.357,1.868796
5029,84973.2,109.759,111.273,1.85115
5041,85176,109.712,111.189,1.829461
5053,85378.8,109.673,111.109,1.770051
5065,85581.6,109.637,111.03,1.729394
5077,85784.4,109.605,110.954,1.650663
5089,85987.2,109.574,110.881,1.569329
5101,86190,109.533,110.81,1.507684
5113,86392.8,109.478,110.741,1.466373
5125,86595.6,109.414,110.672,1.413567
5137,86798.4,109.358,110.604,1.392901
5149,87001.2,109.315,110.538,1.359502
5161,87204,109.282,110.472,1.318311
5173,87406.8,109.254,110.409,1.28543
5185,87609.6,109.23,110.348,1.21744
5197,87812.4,109.207,110.289,1.15961
5209,88015.2,109.181,110.233,1.109474
5221,88218,109.149,110.178,1.049974
5233,88420.8,109.102,110.124,1.005016
5245,88623.6,109.045,110.071,0.989247
5257,88826.4,108.989,110.017,0.979375
5269,89029.2,108.947,109.963,0.951144
5281,89232,108.914,109.91,0.929724
5293,89434.8,108.882,109.859,0.896137
5305,89637.6,108.849,109.809,0.864075
5317,89840.4,108.811,109.759,0.845383
5329,90043.2,108.771,109.71,0.831041
5341,90246,108.728,109.662,0.804829
5353,90448.8,108.673,109.613,0.794827
5365,90651.6,108.599,109.565,0.79886
5377,90854.4,108.511,109.513,0.823828
5389,91057.2,108.421,109.459,0.870692
5401,91260,108.336,109.404,0.916663
5413,91462.8,108.263,109.346,0.979258
5425,91665.6,108.209,109.289,0.994993
5437,91868.4,108.164,109.232,1.006369
5449,92071.2,108.116,109.176,0.983942
5461,92274,108.061,109.119,0.976533
5473,92476.8,108.011,109.064,0.956261
5485,92679.6,107.981,109.009,0.951017
5497,92882.4,107.968,108.956,0.913461
5509,93085.2,107.959,108.905,0.870218
5521,93288,107.949,108.858,0.807475
5533,93490.8,107.94,108.812,0.755343
5545,93693.6,107.923,108.769,0.709441
5557,93896.4,107.89,108.727,0.665705
5569,94099.2,107.846,108.685,0.628223
5581,94302,107.797,108.642,0.621512
5593,94504.8,107.758,108.6,0.605051
5605,94707.6,107.743,108.558,0.606185
5617,94910.4,107.744,108.518,0.55793
5629,95113.2,107.75,108.481,0.519394
5641,95316,107.76,108.447,0.449038
5653,95518.8,107.761,108.414,0.378015
5665,95721.6,107.744,108.385,0.338433
5677,95924.4,107.711,108.354,0.30639
5689,96127.2,107.671,108.325,0.294806
5701,96330,107.634,108.293,0.286369
5713,96532.8,107.61,108.263,0.298095
5725,96735.6,107.592,108.232,0.288078
5737,96938.4,107.577,108.202,0.274901
5749,97141.2,107.565,108.174,0.239329
5761,97344,107.55,108.146,0.209732
5773,97546.8,107.533,108.12,0.205359
5785,97749.6,107.522,108.094,0.174479
5797,97952.4,107.518,108.068,0.14548
5809,98155.2,107.519,108.045,0.121202
5821,98358,107.52,108.023,0.095967
5833,98560.8,107.522,108.003,0.060936
5845,98763.6,107.522,107.983,0.016736
5857,98966.4,107.516,107.965,-0.012317
5869,99169.2,107.505,107.947,-0.026217
5881,99372,107.496,107.93,-0.040436
5893,99574.8,107.494,107.913,-0.067296
5905,99777.6,107.494,107.898,-0.092898
5917,99980.4,107.492,107.883,-0.123878
5929,100183.2,107.478,107.869,-0.139694
5941,100386,107.45,107.854,-0.140026
5953,100588.8,107.415,107.838,-0.135301
5965,100791.6,107.384,107.821,-0.113819
5977,100994.4,107.362,107.803,-0.097076
5989,101197.2,107.342,107.787,-0.071156
6001,101400,107.324,107.769,-0.068002
6013,101602.8,107.314,107.751,-0.068961
6025,101805.6,107.308,107.734,-0.088268
6037,102008.4,107.305,107.718,-0.099037
6049,102211.2,107.297,107.702,-0.108226
6061,102414,107.282,107.687,-0.116784
6073,102616.8,107.262,107.672,-0.137055
6085,102819.6,107.248,107.657,-0.13074
6097,103022.4,107.238,107.641,-0.126322
6109,103225.2,107.231,107.627,-0.148818
6121,103428,107.228,107.612,-0.139651
6133,103630.8,107.226,107.599,-0.150433
6145,103833.6,107.226,107.586,-0.174519
6157,104036.4,107.227,107.575,-0.182136
6169,104239.2,107.23,107.563,-0.216049
6181,104442,107.231,107.553,-0.232857
6193,104644.8,107.227,107.543,-0.265191
6205,104847.6,107.339,107.534,-0.29119
6217,105050.4,107.81,107.541,-0.46607
6229,105253.2,108.381,107.576,-0.888179
6241,105456,108.855,107.64,-1.488969
6253,105658.8,109.239,107.726,-2.10876
6265,105861.6,109.579,107.829,-2.650567
6277,106064.4,109.905,107.946,-3.127082
6289,106267.2,110.235,108.076,-3.538629
6301,106470,110.571,108.219,-3.894795
6313,106672.8,110.91,108.373,-4.249193
6325,106875.6,111.25,108.539,-4.562115
6337,107078.4,111.587,108.715,-4.863516
6349,107281.2,111.925,108.9,-5.16411
6361,107484,112.267,109.095,-5.425907
6373,107686.8,112.607,109.299,-5.682512
6385,107889.6,112.948,109.511,-5.930785
6397,108092.4,113.287,109.73,-6.159262
6409,108295.2,113.625,109.956,-6.373297
6421,108498,113.963,110.19,-6.594677
6433,108700.8,114.302,110.429,-6.779032
6445,108903.6,114.641,110.674,-6.984459
6457,109106.4,114.978,110.925,-7.14715
6469,109309.2,115.3133,111.182,-7.307395
6481,109512,115.65,111.443,-7.478845
6493,109714.8,115.991,111.708,-7.620249
6505,109917.6,116.331,111.978,-7.765499
6517,110120.4,116.672,112.252,-7.920336
6529,110323.2,117.011,112.529,-8.042979
6541,110526,117.347,112.81,-8.187457
6553,110728.8,117.683,113.095,-8.326044
6565,110931.6,118.023,113.382,-8.431709
6577,111134.4,118.362,113.672,-8.55805
6589,111337.2,118.701,113.964,-8.675915
6601,111540,119.039,114.261,-8.79575
6613,111742.8,119.374,114.559,-8.905099
6625,111945.6,119.712,114.858,-9.025654
6637,112148.4,120.052,115.161,-9.147038
6649,112351.2,120.391,115.465,-9.252905
6661,112554,120.731,115.772,-9.384139
6673,112756.8,121.067,116.079,-9.489785
6685,112959.6,121.402,116.388,-9.605026
6697,113162.4,121.743,116.699,-9.747017
6709,113365.2,122.085,117.011,-9.872962
6721,113568,122.424,117.325,-10.0334
6733,113770.8,122.759,117.64,-10.19458
6745,113973.6,123.09,117.957,-10.3733
6757,114176.4,123.422,118.274,-10.5551
6769,114379.2,123.759,118.589,-10.7552
6781,114582,124.103,118.907,-10.9723
6793,114784.8,124.45,119.227,-11.2321
6805,114987.6,124.794,119.548,-11.5297
6817,115190.4,125.132,119.869,-11.82988
6829,115393.2,125.471,120.192,-12.1627
6841,115596,125.802,120.516,-12.496
6853,115798.8,126.1314,120.841,-12.7673
6865,116001.6,126.468,121.163,-12.9847
6877,116204.4,126.808,121.488,-13.12984
6889,116407.2,127.152,121.812,-13.12526
6901,116610,127.49,122.138,-13.0227
6913,116812.8,127.825,122.464,-12.84304
6925,117015.6,128.163,122.79,-12.6238
6937,117218.4,128.507,123.117,-12.4537
6949,117421.2,128.848,123.446,-12.3462
6961,117624,129.188,123.774,-12.2881
6973,117826.8,129.525,124.104,-12.2812
6985,118029.6,129.863,124.434,-12.2891
6997,118232.4,130.198,124.764,-12.2967
7009,118435.2,130.527,125.094,-12.3001
7021,118638,130.856,125.423,-12.2986
7033,118840.8,131.192,125.751,-12.2955
7045,119043.6,131.536,126.079,-12.2961
7057,119246.4,131.881,126.408,-12.302
7069,119449.2,132.226,126.738,-12.3361
7081,119652,132.567,127.068,-12.35525
7093,119854.8,132.898,127.399,-12.3856
7105,120057.6,133.229,127.73,-12.4143
7117,120260.4,133.566,128.06,-12.4311
7129,120463.2,133.908,128.389,-12.4423
7141,120666,134.253,128.72,-12.4598
7153,120868.8,134.597,129.0521,-12.4929
7165,121071.6,134.941,129.385,-12.5378
7177,121274.4,135.278,129.719,-12.5784
7189,121477.2,135.607,130.052,-12.6108
7201,121680,135.939,130.385,-12.6306
7213,121882.8,136.277,130.717,-12.6477
7225,122085.6,136.615,131.05,-12.6637
7237,122288.4,136.95,131.382,-12.6697
7249,122491.2,137.286,131.714,-12.6759
7261,122694,137.627,132.046,-12.6841
7273,122896.8,137.972,132.38,-12.69864
7285,123099.6,138.318,132.714,-12.7427
7297,123302.4,138.661,133.049,-12.7718
7309,123505.2,138.994,133.383,-12.8046
7321,123708,139.324,133.719,-12.8274
7333,123910.8,139.658,134.053,-12.8564
7345,124113.6,139.996,134.387,-12.863
7357,124316.4,140.335,134.721,-12.8654
7369,124519.2,140.677,135.055,-12.8879
7381,124722,141.017,135.39,-12.9153
7393,124924.8,141.351,135.726,-12.9271
7405,125127.6,141.689,136.061,-12.9497
7417,125330.4,142.029,136.395,-12.9697
7429,125533.2,142.365,136.732,-12.9756
7441,125736,142.707,137.066,-12.9925
7453,125938.8,143.043,137.402,-13.0212
7465,126141.6,143.373,137.738,-13.0452
7477,126344.4,143.705,138.072,-13.0463
7489,126547.2,144.045,138.406,-13.0461
7501,126750,144.389,138.741,-13.0527
7513,126952.8,144.733,139.076,-13.0684
7525,127155.6,145.075,139.411,-13.09628
7537,127358.4,145.409,139.747,-13.1126
7549,127561.2,145.744,140.082,-13.1221
7561,127764,146.085,140.417,-13.1387
7573,127966.8,146.428,140.753,-13.1584
7585,128169.6,146.766,141.089,-13.1847
7597,128372.4,147.094,141.426,-13.2045
7609,128575.2,147.425,141.762,-13.1995
7621,128778,147.764,142.097,-13.1898
7633,128980.8,148.107,142.432,-13.1883
7645,129183.6,148.451,142.768,-13.196
7657,129386.4,148.793,143.105,-13.1889
7669,129589.2,149.134,143.441,-13.1705
7681,129792,149.467,143.778,-13.1394
7693,129994.8,149.8,144.115,-13.1015
7705,130197.6,150.138,144.451,-13.02537
7717,130400.4,150.481,144.788,-12.9265
7729,130603.2,150.818,145.126,-12.7908
7741,130806,151.149,145.463,-12.5893
7753,131008.8,151.483,145.8,-12.3102
7765,131211.6,151.823,146.136,-11.95146
7777,131414.4,152.166,146.473,-11.5007
7789,131617.2,152.509,146.809,-10.9026
7801,131820,152.845,147.146,-10.1258
7813,132022.8,153.18,147.484,-9.137118
7825,132225.6,153.517,147.821,-7.87419
7837,132428.4,153.853,148.159,-6.276312
7849,132631.2,154.19,148.495,-4.243879
7861,132834,154.533,148.833,-1.684458
7873,133036.8,154.879,149.171,1.473214
7885,133239.6,155.221,149.51,5.413811
7897,133442.4,155.557,149.849,10.2515
7909,133645.2,155.89,150.189,16.1052
7921,133848,156.225,150.528,22.975
7933,134050.8,156.562,150.869,30.6304
7945,134253.6,156.901,151.209,38.6138
7957,134456.4,157.241,151.55,45.9218
7969,134659.2,157.58,151.89,51.2354
7981,134862,157.917,152.232,53.1692
7993,135064.8,158.252,152.572,50.7697
8005,135267.6,158.589,152.912,44.3506
8017,135470.4,158.927,153.252,35.1906
8029,135673.2,159.265,153.59,25.0569
8041,135876,159.604,153.93,15.4726
8053,136078.8,159.943,154.269,7.413554
8065,136281.6,160.28,154.607,1.208772
8077,136484.4,160.615,154.944,-3.227622
8089,136687.2,160.951,155.282,-6.202939
8101,136890,161.287,155.62,-8.109598
8113,137092.8,161.624,155.956,-9.289389
8125,137295.6,161.966,156.2927,-9.994728
8137,137498.4,162.309,156.63,-10.4243
8149,137701.2,162.651,156.968,-10.7123
8161,137904,162.986,157.306,-10.9031
8173,138106.8,163.318,157.644,-11.05253
8185,138309.6,163.655,157.982,-11.1586
8197,138512.4,163.997,158.319,-11.2325
8209,138715.2,164.338,158.656,-11.2894
8221,138918,164.673,158.994,-11.3622
8233,139120.8,165.007,159.331,-11.4134
8245,139323.6,165.345,159.668,-11.4572
8257,139526.4,165.686,160.006,-11.4955
8269,139729.2,166.029,160.344,-11.5202
8281,139932,166.367,160.683,-11.5654
8293,140134.8,166.698,161.0203,-11.5716
8305,140337.6,167.034,161.359,-11.592
8317,140540.4,167.374,161.696,-11.6057
8329,140743.2,167.716,162.033,-11.6376
8341,140946,168.058,162.371,-11.6526
8353,141148.8,168.394,162.709,-11.6695
8365,141351.6,168.731,163.048,-11.7017
8377,141554.4,169.064,163.386,-11.7055
8389,141757.2,169.4,163.725,-11.72646
8401,141960,169.74,164.062,-11.7602
8413,142162.8,170.082,164.4,-11.7952
8425,142365.6,170.422,164.739,-11.8006
8437,142568.4,170.758,165.077,-11.8291
8449,142771.2,171.095,165.415,-11.8711
8461,142974,171.434,165.753,-11.8497
8473,143176.8,171.775,166.092,-11.9418
8485,143379.6,172.113,166.432,-11.9709
8497,143582.4,172.448,166.77,-12.0238
8509,143785.2,172.785,167.109,-12.0949
8521,143988,173.125,167.448,-12.1759
8533,144190.8,173.464,167.786,-12.2398
8545,144393.6,173.799,168.125,-12.3539
8557,144596.4,174.135,168.464,-12.4757
8569,144799.2,174.474,168.802,-12.7339
8581,145002,174.816,169.141,-12.9544
8593,145204.8,175.154,169.481,-13.2577
8605,145407.6,175.489,169.82,-13.4988
8617,145610.4,175.828,170.159,-13.4549
8629,145813.2,176.17,170.498,-12.508
8641,146016,176.511,170.838,-11.9975
8653,146218.8,176.845,171.178,-12.0321
8665,146421.6,177.178,171.518,-11.6553
8677,146624.4,177.516,171.857,-11.7051
8689,146827.2,177.857,172.196,-11.85638
8701,147030,178.199,172.536,-12.127
8713,147232.8,178.535,172.877,-12.2689
8725,147435.6,178.8664,173.216,-12.4194
8737,147638.4,179.203,173.556,-12.5397
8749,147841.2,179.544,173.894,-12.7784
8761,148044,179.886,174.234,-12.9536
8773,148246.8,180.222,174.573,-13.3686
8785,148449.6,180.558,174.913,-14.0271
8797,148652.4,180.897,175.251,-15.4858
8809,148855.2,181.239,175.591,-19.18808
8821,149058,181.581,175.931,-30.7964
8833,149260.8,181.915,176.27,-57.3032
8845,149463.6,182.25,176.607,-95.2614
8857,149666.4,182.588,176.942,-136.925
8869,149869.2,182.93,177.276,-169.489
8881,150072,183.267,177.611,-178.746
8893,150274.8,183.6,177.946,-182.116
8905,150477.6,183.937,178.281,-134.696
8917,150680.4,184.275,178.62,-68.5043
8929,150883.2,184.617,178.96,-39.9112
8941,151086,184.953,179.301,-27.1139
8953,151288.8,185.289,179.642,-21.3169
8965,151491.6,185.627,179.983,-18.5986
8977,151694.4,185.968,180.323,-17.5512
8989,151897.2,186.309,180.664,-17.0847
9001,152100,186.647,181.0054,-16.8715
9013,152302.8,186.98,181.346,-16.7387
9025,152505.6,187.317,181.687,-16.6785
9037,152708.4,187.655,182.027,-16.7456
9049,152911.2,187.997,182.367,-16.6689
9061,153114,188.336,182.707,-16.6432
9073,153316.8,188.671,183.048,-16.7135
9085,153519.6,189.009,183.388,-16.7936
9097,153722.4,189.349,183.729,-16.7537
9109,153925.2,189.688,184.069,-16.864
9121,154128,190.025,184.408,-17.02265
9133,154330.8,190.361,184.749,-16.942
9145,154533.6,190.698,185.09,-16.9254
9157,154736.4,191.04,185.429,-16.9511
9169,154939.2,191.377,185.77,-17.01653
9181,155142,191.713,186.111,-17.0744
9193,155344.8,192.051,186.45,-17.1413
9205,155547.6,192.393,186.79,-17.1885
9217,155750.4,192.733,187.13,-17.2881
9229,155953.2,193.07,187.47,-17.2954
9241,156156,193.405,187.811,-17.32408
9253,156358.8,193.741,188.151,-17.5325
9265,156561.6,194.081,188.492,-17.4972
9277,156764.4,194.42,188.832,-17.3916
9289,156967.2,194.754,189.173,-17.48394
9301,157170,195.09,189.513,-17.56284
9313,157372.8,195.43,189.852,-17.5264
9325,157575.6,195.771,190.192,-17.3982
9337,157778.4,196.114,190.532,-17.4321
9349,157981.2,196.451,190.873,-17.6309
9361,158184,196.785,191.213,-17.8006
9373,158386.8,197.121,191.553,-17.8623
9385,158589.6,197.461,191.893,-17.8944
9397,158792.4,197.802,192.233,-17.8973
9409,158995.2,198.14,192.574,-18.043
9421,159198,198.474,192.914,-18.07675
9433,159400.8,198.811,193.255,-17.9132
9445,159603.6,199.15,193.594,-17.9165
9457,159806.4,199.492,193.934,-18.0799
9469,160009.2,199.829,194.275,-18.245
9481,160212,200.166,194.616,-18.2615
9493,160414.8,200.504,194.956,-18.2652
9505,160617.6,200.841,195.297,-18.3474
9517,160820.4,201.176,195.636,-18.4506
9529,161023.2,201.511,195.976,-18.4988
9541,161226,201.85,196.316,-18.4182
9553,161428.8,202.191,196.656,-18.5673
9565,161631.6,202.53,196.996,-18.4357
9577,161834.4,202.865,197.336,-18.4057
9589,162037.2,203.203,197.675,-18.4852
9601,162240,203.543,198.015,-18.4917
9613,162442.8,203.884,198.354,-18.596
9625,162645.6,204.219,198.695,-18.6955
9637,162848.4,204.556,199.034,-18.6435
9649,163051.2,204.896,199.374,-18.8038
9661,163254,205.236,199.713,-18.7699
9673,163456.8,205.573,200.053,-18.8445
9685,163659.6,205.909,200.393,-19.02616
9697,163862.4,206.248,200.733,-19.1144
9709,164065.2,206.589,201.072,-18.98368
9721,164268,206.928,201.413,-19.1269
9733,164470.8,207.263,201.754,-19.1629
9745,164673.6,207.601,202.093,-19.1305
9757,164876.4,207.939,202.433,-19.3689
9769,165079.2,208.276,202.773,-19.3214
9781,165282,208.614,203.113,-19.4448
9793,165484.8,208.954,203.453,-19.591
9805,165687.6,209.291,203.793,-19.6601
9817,165890.4,209.628,204.134,-19.583
9829,166093.2,209.9672,204.473,-19.5623
9841,166296,210.306,204.814,-19.6767
9853,166498.8,210.643,205.154,-19.81
9865,166701.6,210.978,205.494,-20.0123
9877,166904.4,211.316,205.833,-20.1425
9889,167107.2,211.6561,206.173,-20.157
9901,167310,211.995,206.513,-20.2546
9913,167512.8,212.331,206.852,-20.1555
9925,167715.6,212.668,207.193,-20.1556
9937,167918.4,213.008,207.532,-20.2499
9949,168121.2,213.348,207.872,-20.3051
9961,168324,213.685,208.212,-20.4395
9973,168526.8,214.021,208.552,-20.5318
9985,168729.6,214.36,208.892,-20.6265
9997,168932.4,214.7,209.231,-20.7303
10009,169135.2,215.039,209.572,-20.7446
10021,169338,215.376,209.911,-20.6595
10033,169540.8,215.714,210.251,-20.9104
10045,169743.6,216.054,210.592,-21.1695
10057,169946.4,216.394,210.933,-21.2831
10069,170149.2,216.732,211.274,-21.3754
10081,170352,217.067,211.614,-21.4159
10093,170554.8,217.404,211.955,-21.333
10105,170757.6,217.743,212.296,-21.4343
10117,170960.4,218.085,212.636,-21.6511
10129,171163.2,218.42,212.978,-21.7669
10141,171366,218.758,213.318,-21.8225
10153,171568.8,219.096,213.66,-21.939
10165,171771.6,219.428,214,-21.9207
10177,171974.4,219.765,214.341,-22.1831
10189,172177.2,220.103,214.681,-22.3195
10201,172380,220.442,215.021,-22.265
10213,172582.8,220.782,215.361,-22.5373
10225,172785.6,221.118,215.701,-22.4515
10237,172988.4,221.455,216.04,-22.5197
10249,173191.2,221.795,216.381,-22.6108
10261,173394,222.134,216.72,-22.6939
10273,173596.8,222.474,217.06,-22.7786
10285,173799.6,222.816,217.4,-23.03932
10297,174002.4,223.154,217.741,-23.0866
10309,174205.2,223.489,218.082,-23.2273
10321,174408,223.823,218.421,-23.5415
10333,174610.8,224.159,218.762,-23.5266
10345,174813.6,224.499,219.101,-23.5592
10357,175016.4,224.8421,219.442,-23.6093
10369,175219.2,225.181,219.782,-23.8719
10381,175422,225.514,220.123,-24.0996
10393,175624.8,225.849,220.463,-24.2198
10405,175827.6,226.188,220.803,-24.1244
10417,176030.4,226.528,221.142,-24.3857
10429,176233.2,226.868,221.482,-24.5658
10441,176436,227.208,221.822,-24.6562
10453,176638.8,227.547,222.162,-24.6902
10465,176841.6,227.882,222.502,-24.8611
10477,177044.4,228.216,222.843,-24.8278
10489,177247.2,228.553,223.182,-25.17672
10501,177450,228.893,223.522,-25.4646
10513,177652.8,229.234,223.861,-25.46753
10525,177855.6,229.569,224.202,-25.6312
10537,178058.4,229.906,224.541,-25.8242
10549,178261.2,230.244,224.881,-26.07095
10561,178464,230.585,225.22,-26.181
10573,178666.8,230.927,225.56,-26.4504
10585,178869.6,231.267,225.9,-26.5396
10597,179072.4,231.607,226.241,-26.766
10609,179275.2,231.944,226.582,-26.9583
10621,179478,232.277,226.923,-27.1688
10633,179680.8,232.611,227.264,-27.4214
10645,179883.6,232.948,227.604,-27.6699
10657,180086.4,233.284,227.9438,-27.6744
10669,180289.2,233.624,228.283,-27.9727
10681,180492,233.966,228.623,-28.2096
10693,180694.8,234.306,228.963,-28.2836
10705,180897.6,234.645,229.305,-28.4812
10717,181100.4,234.984,229.645,-28.76715
10729,181303.2,235.322,229.985,-28.9712
10741,181506,235.659,230.328,-29.40725
10753,181708.8,235.993,230.669,-29.5785
10765,181911.6,236.328,231.008,-29.8713
10777,182114.4,236.665,231.348,-29.9303
10789,182317.2,237.006,231.688,-30.1679
10801,182520,237.349,232.028,-30.4028
10813,182722.8,237.69,232.369,-30.8164
10825,182925.6,238.025,232.71,-31.1243
10837,183128.4,238.36,233.052,-31.3465
10849,183331.2,238.696,233.392,-31.5885
10861,183534,239.03,233.732,-31.8833
10873,183736.8,239.366,234.071,-32.0825
10885,183939.6,239.704,234.41,-32.1799
10897,184142.4,240.044,234.749,-32.4965
10909,184345.2,240.385,235.087,-32.8665
10921,184548,240.727,235.428,-33.1808
10933,184750.8,241.066,235.768,-33.60752
10945,184953.6,241.405,236.108,-33.9665
10957,185156.4,241.744,236.448,-34.35026
10969,185359.2,242.08,236.788,-34.8027
10981,185562,242.416,237.129,-35.2572
10993,185764.8,242.75,237.468,-35.5187
11005,185967.6,243.087,237.808,-35.9492
11017,186170.4,243.428,238.148,-36.4012
11029,186373.2,243.772,238.488,-36.8429
11041,186576,244.112,238.83,-37.0878
11053,186778.8,244.45,239.17,-37.6303
11065,186981.6,244.786,239.512,-38.2258
11077,187184.4,245.12,239.852,-38.7293
11089,187387.2,245.454,240.192,-39.1712
11101,187590,245.788,240.532,-39.6379
11113,187792.8,246.126,240.871,-40.1143
11125,187995.6,246.464,241.21,-40.413
11137,188198.4,246.803,241.549,-40.9292
11149,188401.2,247.145,241.888,-41.52296
11161,188604,247.485,242.228,-41.9555
11173,188806.8,247.823,242.568,-42.4437
11185,189009.6,248.16,242.907,-43.218
11197,189212.4,248.501,243.246,-43.7952
11209,189415.2,248.843,243.586,-44.5054
11221,189618,249.179,243.926,-44.9785
11233,189820.8,249.513,244.266,-45.6874
11245,190023.6,249.848,244.605,-46.4326
11257,190226.4,250.186,244.944,-47.3163
11269,190429.2,250.525,245.284,-48.0207
11281,190632,250.864,245.623,-48.7175
11293,190834.8,251.204,245.961,-49.4624
11305,191037.6,251.542,246.302,-50.3005
11317,191240.4,251.879,246.641,-51.1911
11329,191443.2,252.215,246.98,-52
11341,191646,252.554,247.319,-52.7634
11353,191848.8,252.891,247.658,-53.7768
11365,192051.6,253.233,247.998,-54.702
11377,192254.4,253.571,248.338,-55.7911
11389,192457.2,253.909,248.678,-56.7904
11401,192660,254.249,249.018,-57.9673
11413,192862.8,254.588,249.358,-59.0887
11425,193065.6,254.926,249.698,-60.2502
11437,193268.4,255.264,250.038,-61.51955
11449,193471.2,255.5999,250.378,-62.7532
11461,193674,255.937,250.717,-64.0177
11473,193876.8,256.275,251.058,-65.4586
11485,194079.6,256.611,251.399,-66.6991
11497,194282.4,256.95,251.739,-68.2227
11509,194485.2,257.288,252.079,-69.7189
11521,194688,257.627,252.419,-71.2143
11533,194890.8,257.965,252.759,-72.8032
11545,195093.6,258.302,253.098,-74.486
11557,195296.4,258.637,253.438,-76.255
11569,195499.2,258.974,253.778,-77.9894
11581,195702,259.312,254.116,-79.94368
11593,195904.8,259.65,254.456,-81.8615
11605,196107.6,259.99,254.795,-83.8471
11617,196310.4,260.33,255.134,-85.9541
11629,196513.2,260.67,255.473,-88.1987
11641,196716,261.005,255.813,-90.51883
11653,196918.8,261.342,256.152,-92.8774
11665,197121.6,261.679,256.491,-95.3157
11677,197324.4,262.018,256.83,-97.7646
11689,197527.2,262.355,257.168,-100.319
11701,197730,262.69,257.506,-102.948
11713,197932.8,263.028,257.844,-105.491
11725,198135.6,263.366,258.182,-107.95
11737,198338.4,263.708,258.52,-110.347
11749,198541.2,264.049,258.859,-112.6
11761,198744,264.385,259.198,-114.396
11773,198946.8,264.722,259.535,-115.385
11785,199149.6,265.058,259.874,-115.072
11797,199352.4,265.3954,260.212,-112.681
11809,199555.2,265.732,260.55,-108.009
11821,199758,266.071,260.889,-101.205
11833,199960.8,266.411,261.228,-90.88007
11845,200163.6,266.75,261.567,-78.1029
11857,200366.4,267.087,261.907,-64.0134
11869,200569.2,267.426,262.247,-52.4036
11881,200772,267.765,262.587,-42.7587
11893,200974.8,268.102,262.928,-37.3697
11905,201177.6,268.441,263.268,-34.5862
11917,201380.4,268.78,263.608,-33.1456
11929,201583.2,269.122,263.949,-32.3756
11941,201786,269.464,264.291,-31.94815
11953,201988.8,269.802,264.633,-31.82319
11965,202191.6,270.138,264.975,-31.6837
11977,202394.4,270.473,265.317,-31.6773
11989,202597.2,270.803,265.658,-31.6461
12001,202800,271.14,265.999,-31.6344
12013,203002.8,271.477,266.339,-31.599
12025,203205.6,271.815,266.678,-31.5554
12037,203408.4,272.154,267.018,-31.5266
12049,203611.2,272.493,267.358,-31.56449
12061,203814,272.832,267.698,-31.628
12073,204016.8,273.175,268.037,-31.59
12085,204219.6,273.516,268.377,-31.5755
12097,204422.4,273.854,268.718,-31.625
12109,204625.2,274.189,269.058,-31.6813
12121,204828,274.523,269.398,-31.7282
12133,205030.8,274.861,269.738,-31.6338
12145,205233.6,275.198,270.077,-31.5921
12157,205436.4,275.535,270.416,-31.6433
12169,205639.2,275.875,270.755,-31.7096
12181,205842,276.213,271.095,-31.7756
12193,206044.8,276.552,271.434,-31.77841
12205,206247.6,276.889,271.773,-31.7993
12217,206450.4,277.229,272.112,-31.8068
12229,206653.2,277.569,272.451,-31.8528
12241,206856,277.906,272.791,-31.872
12253,207058.8,278.242,273.129,-31.8983
12265,207261.6,278.58,273.469,-31.9052
12277,207464.4,278.919,273.809,-32.0311
12289,207667.2,279.256,274.148,-31.9885
12301,207870,279.594,274.487,-31.9387
12313,208072.8,279.933,274.827,-31.9301
12325,208275.6,280.272,275.166,-31.97277
12337,208478.4,280.61,275.505,-31.963
12349,208681.2,280.947,275.845,-31.9573
12361,208884,281.287,276.184,-32.0061
12373,209086.8,281.627,276.523,-32.0155
12385,209289.6,281.963,276.863,-32.0254
12397,209492.4,282.3,277.203,-32.005
12409,209695.2,282.637,277.543,-31.989
12421,209898,282.976,277.882,-31.9947
12433,210100.8,283.314,278.222,-31.9821
12445,210303.6,283.651,278.562,-32.0122
12457,210506.4,283.989,278.902,-31.9814
12469,210709.2,284.325,279.241,-31.9868
12481,210912,284.663,279.58,-31.9852
12493,211114.8,285.002,279.919,-32.0044
12505,211317.6,285.342,280.258,-31.9822
12517,211520.4,285.681,280.597,-31.9538
12529,211723.2,286.017,280.936,-31.964
12541,211926,286.355,281.275,-31.9548
12553,212128.8,286.693,281.615,-31.9577
12565,212331.6,287.03,281.953,-31.9571
12577,212534.4,287.367,282.293,-31.9618
12589,212737.2,287.707,282.632,-31.9556
12601,212940,288.047,282.971,-31.9574
12613,213142.8,288.383,283.311,-31.9462
12625,213345.6,288.719,283.65,-31.9281
12637,213548.4,289.059,283.989,-31.9241
12649,213751.2,289.397,284.327,-31.9283
12661,213954,289.736,284.667,-31.9222
12673,214156.8,290.075,285.006,-31.9063
12685,214359.6,290.413,285.346,-31.92
12697,214562.4,290.75,285.685,-31.9372
12709,214765.2,291.087,286.025,-31.9601
12721,214968,291.425,286.363,-31.9604
12733,215170.8,291.763,286.703,-31.95059
12745,215373.6,292.101,287.043,-31.94955
12757,215576.4,292.441,287.383,-31.9524
12769,215779.2,292.78,287.721,-31.9683
12781,215982,293.118,288.061,-31.9856
12793,216184.8,293.454,288.4,-31.9707
12805,216387.6,293.791,288.74,-31.9718
12817,216590.4,294.129,289.078,-31.9734
12829,216793.2,294.467,289.417,-31.9493
12841,216996,294.806,289.757,-31.9361
12853,217198.8,295.142,290.096,-31.9464
12865,217401.6,295.48,290.435,-31.9384
12877,217604.4,295.819,290.773,-31.9184
12889,217807.2,296.16,291.112,-31.88774
12901,218010,296.499,291.45,-31.86113
12913,218212.8,296.836,291.788,-31.83183
12925,218415.6,297.174,292.127,-31.8043
12937,218618.4,297.512,292.465,-31.7933
12949,218821.2,297.85,292.803,-31.794
12961,219024,298.188,293.14,-31.7943
12973,219226.8,298.525,293.477,-31.76951
12985,219429.6,298.861,293.813,-31.7358
12997,219632.4,299.19,294.148,-31.7107
13009,219835.2,299.219,294.472,-31.59586
13021,220038,299.188,294.773,-31.0725
13033,220240.8,299.166,295.048,-29.9533
13045,220443.6,299.159,295.301,-28.38754
13057,220646.4,299.16,295.535,-26.6001
13069,220849.2,299.16,295.752,-24.7508
13081,221052,299.159,295.95,-22.9444
13093,221254.8,299.16,296.135,-21.215
13105,221457.6,299.161,296.304,-19.5752
13117,221660.4,299.16,296.46,-18.0377
13129,221863.2,299.159,296.604,-16.61538
13141,222066,299.159,296.736,-15.2823
13153,222268.8,299.158,296.858,-14.0414
13165,222471.6,299.156,296.97,-12.9053
13177,222674.4,299.155,297.073,-11.8466
13189,222877.2,299.156,297.167,-10.8627
13201,223080,299.157,297.255,-9.959438
13213,223282.8,299.155,297.334,-9.126329
13225,223485.6,299.155,297.409,-8.357972
13237,223688.4,299.156,297.478,-7.655201
13249,223891.2,299.158,297.54,-7.007002
13261,224094,299.159,297.599,-6.410079
13273,224296.8,299.157,297.652,-5.884169
13285,224499.6,299.152,297.702,-5.394898
13297,224702.4,299.151,297.747,-4.927853
13309,224905.2,299.149,297.788,-4.477515
13321,225108,299.144,297.825,-4.065171
13333,225310.8,299.144,297.859,-3.6666
13345,225513.6,299.146,297.889,-3.291756
13357,225716.4,299.151,297.917,-2.942517
13369,225919.2,299.15,297.943,-2.646688
13381,226122,299.149,297.967,-2.37508
13393,226324.8,299.15,297.989,-2.129065
13405,226527.6,299.152,298.009,-1.905204
13417,226730.4,299.149,298.028,-1.702465
13429,226933.2,299.148,298.044,-1.515014
13441,227136,299.151,298.06,-1.341471
13453,227338.8,299.151,298.074,-1.18527
13465,227541.6,299.144,298.087,-1.044693
13477,227744.4,299.142,298.098,-0.89451
13489,227947.2,299.147,298.107,-0.746047
13501,228150,299.15,298.117,-0.60634
13513,228352.8,299.142,298.125,-0.499073
13525,228555.6,299.136,298.131,-0.360058
13537,228758.4,299.139,298.135,-0.213837
13549,228961.2,299.145,298.14,-0.093017
13561,229164,299.147,298.144,-0.003947
13573,229366.8,299.141,298.147,0.082548
13585,229569.6,299.142,298.15,0.143128
13597,229772.4,299.149,298.152,0.197015
13609,229975.2,299.152,298.155,0.250902
13621,230178,299.145,298.158,0.27201
13633,230380.8,299.141,298.158,0.334992
13645,230583.6,299.144,298.159,0.381156
13657,230786.4,299.15,298.159,0.422172
13669,230989.2,299.15,298.161,0.441392
13681,231192,299.148,298.162,0.448257
13693,231394.8,299.148,298.162,0.457009
13705,231597.6,299.153,298.163,0.465246
13717,231800.4,299.15,298.164,0.473483
13729,232003.2,299.149,298.165,0.481548
13741,232206,299.152,298.165,0.478802
13753,232408.8,299.157,298.167,0.478458
13765,232611.6,299.16,298.169,0.470392
13777,232814.4,299.155,298.171,0.427144
13789,233017.2,299.148,298.172,0.401917
13801,233220,299.148,298.174,0.402259
13813,233422.8,299.152,298.175,0.432977
13825,233625.6,299.148,298.175,0.45031
13837,233828.4,299.144,298.176,0.470045
13849,234031.2,299.145,298.175,0.51947
13861,234234,299.149,298.175,0.559284
13873,234436.8,299.144,298.174,0.574558
13885,234639.6,299.142,298.173,0.602188
13897,234842.4,299.146,298.171,0.624499
13909,235045.2,299.153,298.171,0.644063
13921,235248,299.155,298.171,0.64698
13933,235450.8,299.15,298.172,0.616261
13945,235653.6,299.149,298.171,0.608539
13957,235856.4,299.148,298.171,0.597556
13969,236059.2,299.138,298.169,0.607167
13981,236262,299.134,298.166,0.660712
13993,236464.8,299.139,298.1624,0.73468
14005,236667.6,299.146,298.16,0.791315
14017,236870.4,299.145,298.157,0.815858
14029,237073.2,299.141,298.155,0.816203
14041,237276,299.144,298.152,0.825473
14053,237478.8,299.151,298.15,0.845897
14065,237681.6,299.152,298.147,0.829939
14077,237884.4,299.153,298.146,0.799906
14089,238087.2,299.151,298.146,0.758376
14101,238290,299.138,298.143,0.724912
14113,238492.8,299.133,298.14,0.750142
14125,238695.6,299.137,298.135,0.817249
14137,238898.4,299.146,298.131,0.870626
14149,239101.2,299.145,298.128,0.891222
14161,239304,299.142,298.125,0.891053
14173,239506.8,299.146,298.122,0.898951
14185,239709.6,299.152,298.119,0.888313
14197,239912.4,299.152,298.116,0.865318
14209,240115.2,299.14,298.114,0.829279
14221,240318,299.137,298.11,0.835975
14233,240520.8,299.143,298.107,0.869445
14245,240723.6,299.151,298.103,0.894505
14257,240926.4,299.144,298.1,0.898455
14269,241129.2,299.135,298.096,0.904294
14281,241332,299.14,298.091,0.935362
14293,241534.8,299.147,298.087,0.963857
14305,241737.6,299.147,298.084,0.946525
14317,241940.4,299.134,298.079,0.931426
14329,242143.2,299.135,298.073,0.961123
14341,242346,299.143,298.068,0.993051
14353,242548.8,299.154,298.064,1.020345
14365,242751.6,299.158,298.062,0.999408
14377,242954.4,299.151,298.06,0.912736
14389,243157.2,299.148,298.058,0.859017
14401,243360,299.151,298.056,0.84649
14413,243562.8,299.156,298.055,0.825723
14425,243765.6,299.156,298.054,0.773719
14437,243968.4,299.154,298.054,0.729095
14449,244171.2,299.151,298.052,0.681553
14461,244374,299.151,298.052,0.658727
14473,244576.8,299.144,298.052,0.650831
14485,244779.6,299.125,298.049,0.629207
14497,244982.4,299.119,298.043,0.731849
14509,245185.2,299.126,298.035,0.88564
14521,245388,299.139,298.029,1.003388
14533,245590.8,299.14,298.023,1.075482
14545,245793.6,299.136,298.017,1.094368
14557,245996.4,299.141,298.011,1.108964
14569,246199.2,299.149,298.005,1.107254
14581,246402,299.149,298.001,1.077392
14593,246604.8,299.136,297.997,1.037748
14605,246807.6,299.1341,297.99,1.061785
14617,247010.4,299.141,297.985,1.081358
14629,247213.2,299.155,297.979,1.082222
14641,247416,299.159,297.977,1.037082
14653,247618.8,299.156,297.976,0.967738
14665,247821.6,299.157,297.974,0.909723
14677,248024.4,299.162,297.974,0.833856
14689,248227.2,299.16,297.975,0.750607
14701,248430,299.149,297.976,0.702717
14713,248632.8,299.143,297.975,0.686411
14725,248835.6,299.151,297.974,0.713361
14737,249038.4,299.153,297.972,0.717138
14749,249241.2,299.159,297.973,0.699801
14761,249444,299.149,297.973,0.66942
14773,249646.8,299.149,297.973,0.654143
14785,249849.6,299.154,297.971,0.646935
14797,250052.4,299.161,297.971,0.61724
14809,250255.2,299.152,297.972,0.577933
14821,250458,299.139,297.972,0.577418
14833,250660.8,299.14,297.969,0.607801
14845,250863.6,299.148,297.968,0.641445
14857,251066.4,299.157,297.968,0.658438
14869,251269.2,299.153,297.968,0.640415
14881,251472,299.154,297.968,0.606943
14893,251674.8,299.159,297.969,0.573815
14905,251877.6,299.163,297.971,0.544119
14917,252080.4,299.159,297.973,0.501378
14929,252283.2,299.149,297.975,0.429286
14941,252486,299.15,297.976,0.422591
14953,252688.8,299.155,297.9788,0.418127
14954,252705.7,299.156,297.978,0.420016