File: i_data/26C/H2O-NH3_4.5858g.csv
H2O-NH3 8wt% Specific Heat - Large HF,,,,
Creation Date : 8/19/2022 10:37:18 AM,,,,
User : admin,,,,
,,,,
HeatFlow :,,,,
 Initial Mass : 4585.8 mg,,,,
 Molar Mass : 17 g/mol,,,,
,,,,
Index,Time(s),Furnace Temperature(K),Sample Temperature(K),HeatFlow(mW)
1,0,298.73,298.569,342.66
13,202.8,298.702,298.5896,175.004
25,405.6,298.686,298.603,89.3817
37,608.4,298.671,298.612,45.458
49,811.2,298.647,298.618,22.924
61,1014,298.601,298.62,11.4002
73,1216.8,298.515,298.618,5.596081
85,1419.6,298.369,298.606,2.83933
97,1622.4,298.144,298.58,1.804818
109,1825.2,297.82,298.534,1.870946
121,2028,297.367,298.462,2.762524
133,2230.8,296.736,298.351,4.41156
145,2433.6,295.896,298.189,6.90609
157,2636.4,294.845,297.963,10.4209
169,2839.2,293.606,297.661,15.0729
181,3042,292.234,297.277,20.8513
193,3244.8,290.775,296.808,27.56121
205,3447.6,289.258,296.256,34.97017
217,3650.4,287.708,295.622,42.6928
229,3853.2,286.142,294.915,50.4692
241,4056,284.579,294.138,58.1047
253,4258.8,283.031,293.302,65.36597
265,4461.6,281.506,292.417,71.95967
277,4664.4,280.006,291.482,77.90686
289,4867.2,278.5288,290.5,83.4756
301,5070,277.076,289.477,88.61604
313,5272.8,275.647,288.421,93.2413
325,5475.6,274.238,287.336,97.2861
337,5678.4,272.852,286.228,100.79
349,5881.2,271.483,285.1,103.774
361,6084,270.135,283.955,106.304
373,6286.8,268.809,282.796,108.428
385,6489.6,267.501,281.628,110.189
397,6692.4,266.211,280.452,111.638
409,6895.2,264.9383,279.269,112.805
421,7098,263.681,278.084,113.734
433,7300.8,262.443,276.894,114.43
445,7503.6,261.218,275.705,114.968
457,7706.4,260.01,274.516,115.273
469,7909.2,258.815,273.328,115.552
481,8112,257.632,272.144,115.491
493,8314.8,256.464,270.963,115.432
505,8517.6,255.307,269.785,115.254
517,8720.4,254.162,268.613,115.074
529,8923.2,253.028,267.446,114.795
541,9126,251.905,266.284,114.236
553,9328.8,250.794,265.128,113.611
565,9531.6,249.693,263.979,113.158
577,9734.4,248.604,262.837,112.501
589,9937.2,247.524,261.702,111.908
601,10140,246.456,260.574,111.495
613,10342.8,245.396,259.453,110.906
625,10545.6,244.349,258.339,110.532
637,10748.4,243.315,257.234,109.653
649,10951.2,242.294,256.138,108.893
661,11154,241.28,255.05,107.903
673,11356.8,240.275,253.969,106.823
685,11559.6,239.275,252.898,106.197
697,11762.4,238.281,251.835,105.409
709,11965.2,237.296,250.778,104.845
721,12168,236.32,249.731,103.651
733,12370.8,235.352,248.691,103.493
745,12573.6,234.393,247.66,698.885
757,12776.4,233.441,246.67,927.156
769,12979.2,232.5,245.676,724.889
781,13182,231.57,244.68,522.41
793,13384.8,230.651,243.686,375.253
805,13587.6,229.741,242.696,278.404
817,13790.4,228.839,241.711,216.837
829,13993.2,227.942,240.734,177.846
841,14196,227.051,239.764,153.03
853,14398.8,226.168,238.802,136.469
865,14601.6,225.291,237.846,125.288
877,14804.4,224.422,236.899,116.361
889,15007.2,223.56,235.959,109.908
901,15210,222.705,235.027,104.329
913,15412.8,221.857,234.103,99.5923
925,15615.6,221.014,233.186,95.56643
937,15818.4,220.178,232.276,91.73319
949,16021.2,219.347,231.373,89.0234
961,16224,218.521,230.478,86.3656
973,16426.8,217.702,229.589,83.462
985,16629.6,216.888,228.706,80.8207
997,16832.4,216.079,227.831,78.3872
1009,17035.2,215.277,226.963,76.2675
1021,17238,214.48,226.1,74.3214
1033,17440.8,213.688,225.243,72.2709
1045,17643.6,212.904,224.395,69.97124
1057,17846.4,212.127,223.552,67.8543
1069,18049.2,211.359,222.715,66.1238
1081,18252,210.597,221.884,64.4799
1093,18454.8,209.84,221.061,63.0356
1105,18657.6,209.09,220.244,61.8665
1117,18860.4,208.345,219.433,60.1208
1129,19063.2,207.605,218.628,58.8322
1141,19266,206.871,217.83,58.0708
1153,19468.8,206.143,217.037,56.7716
1165,19671.6,205.419,216.251,55.5939
1177,19874.4,204.699,215.471,54.3768
1189,20077.2,203.984,214.697,52.68829
1201,20280,203.271,213.928,51.8697
1213,20482.8,202.563,213.164,51.1402
1225,20685.6,201.86,212.404,49.8283
1237,20888.4,201.16,211.65,48.9891
1249,21091.2,200.466,210.902,48.2516
1261,21294,199.775,210.158,46.9925
1273,21496.8,199.091,209.419,46.8061
1285,21699.6,198.41,208.685,46.3422
1297,21902.4,197.736,207.958,45.32877
1309,22105.2,197.068,207.234,44.3444
1321,22308,196.406,206.515,43.8686
1333,22510.8,195.746,205.803,43.7086
1345,22713.6,195.092,205.094,42.9183
1357,22916.4,194.444,204.3916,42.3434
1369,23119.2,193.799,203.693,41.543
1381,23322,193.162,203,40.7311
1393,23524.8,192.527,202.312,40.0355
1405,23727.6,191.897,201.628,39.3822
1417,23930.4,191.274,200.949,38.9882
1429,24133.2,190.653,200.275,38.3064
1441,24336,190.035,199.606,37.7435
1453,24538.8,189.422,198.941,37.115
1465,24741.6,188.811,198.281,36.7811
1477,24944.4,188.203,197.625,36.1459
1489,25147.2,187.603,196.973,35.5858
1501,25350,187.01,196.326,35.034
1513,25552.8,186.425,195.684,34.6276
1525,25755.6,185.8468,195.048,34.27397
1537,25958.4,185.273,194.416,34.0424
1549,26161.2,184.702,193.787,33.3977
1561,26364,184.13,193.166,33.0205
1573,26566.8,183.56,192.547,32.74619
1585,26769.6,182.997,191.933,31.841
1597,26972.4,182.436,191.323,31.3843
1609,27175.2,181.883,190.717,31.2401
1621,27378,181.337,190.116,30.8127
1633,27580.8,180.798,189.519,30.2435
1645,27783.6,180.265,188.928,30.118
1657,27986.4,179.737,188.341,29.58408
1669,28189.2,179.213,187.758,28.7747
1681,28392,178.693,187.181,28.6057
1693,28594.8,178.177,186.608,28.0851
1705,28797.6,177.666,186.04,27.766
1717,29000.4,177.158,185.476,27.481
1729,29203.2,176.653,184.917,27.46756
1741,29406,176.151,184.362,26.4377
1753,29608.8,175.651,183.811,26.211
1765,29811.6,175.155,183.264,25.6746
1777,30014.4,174.661,182.721,25.6214
1789,30217.2,174.171,182.183,25.0868
1801,30420,173.685,181.647,24.8538
1813,30622.8,173.2,181.116,24.6682
1825,30825.6,172.719,180.59,25.4503
1837,31028.4,172.239,180.066,25.0946
1849,31231.2,171.766,179.546,24.4423
1861,31434,171.296,179.03,23.6238
1873,31636.8,170.83,178.517,23.2366
1885,31839.6,170.367,178.008,23.374
1897,32042.4,169.908,177.502,23.0912
1909,32245.2,169.452,177.001,22.7007
1921,32448,169,176.503,22.51843
1933,32650.8,168.551,176.008,22.4334
1945,32853.6,168.104,175.517,22.2096
1957,33056.4,167.66,175.028,22.0372
1969,33259.2,167.22,174.545,21.7947
1981,33462,166.781,174.064,21.9435
1993,33664.8,166.344,173.587,21.47
2005,33867.6,165.91,173.113,21.206
2017,34070.4,165.479,172.641,20.9132
2029,34273.2,165.05,172.172,20.7901
2041,34476,164.625,171.708,20.7894
2053,34678.8,164.2041,171.245,20.3673
2065,34881.6,163.785,170.787,20.0281
2077,35084.4,163.369,170.331,19.7522
2089,35287.2,162.956,169.878,19.4883
2101,35490,162.546,169.429,19.4137
2113,35692.8,162.141,168.982,18.982
2125,35895.6,161.736,168.538,18.7397
2137,36098.4,161.335,168.098,18.4435
2149,36301.2,160.936,167.659,19.0411
2161,36504,160.54,167.225,18.5043
2173,36706.8,160.148,166.793,18.8113
2185,36909.6,159.758,166.363,18.3523
2197,37112.4,159.371,165.938,18.1001
2209,37315.2,158.987,165.515,18.2474
2221,37518,158.605,165.095,17.8954
2233,37720.8,158.227,164.678,17.5915
2245,37923.6,157.852,164.264,17.2855
2257,38126.4,157.48,163.852,16.9455
2269,38329.2,157.107,163.443,16.8125
2281,38532,156.736,163.037,16.7465
2293,38734.8,156.367,162.633,16.5923
2305,38937.6,156,162.233,16.8407
2317,39140.4,155.634,161.835,16.6625
2329,39343.2,155.27,161.439,16.3058
2341,39546,154.906,161.045,16.2461
2353,39748.8,154.541,160.654,15.9858
2365,39951.6,154.177,160.264,15.9208
2377,40154.4,153.814,159.876,15.9031
2389,40357.2,153.451,159.49,15.6775
2401,40560,153.091,159.106,15.8426
2413,40762.8,152.73,158.724,15.5338
2425,40965.6,152.372,158.343,15.4319
2437,41168.4,152.015,157.965,15.3184
2449,41371.2,151.659,157.587,15.3352
2461,41574,151.302,157.211,15.274
2473,41776.8,150.948,156.837,14.9377
2485,41979.6,150.593,156.464,14.8608
2497,42182.4,150.239,156.093,14.7216
2509,42385.2,149.888,155.723,14.8133
2521,42588,149.537,155.355,14.528
2533,42790.8,149.188,154.988,14.52452
2545,42993.6,148.839,154.622,14.4706
2557,43196.4,148.491,154.257,14.43076
2569,43399.2,148.146,153.894,14.2183
2581,43602,147.802,153.532,14.1915
2593,43804.8,147.46,153.172,14.0319
2605,44007.6,147.121,152.814,14.1246
2617,44210.4,146.786,152.457,14.1757
2629,44413.2,146.453,152.101,14.0001
2641,44616,146.122,151.747,13.9091
2653,44818.8,145.793,151.395,13.6918
2665,45021.6,145.463,151.044,13.6716
2677,45224.4,145.132,150.694,13.6974
2689,45427.2,144.805,150.346,13.6634
2701,45630,144.484,150,13.3673
2713,45832.8,144.168,149.656,13.1884
2725,46035.6,143.855,149.314,13.17134
2737,46238.4,143.546,148.974,13.125
2749,46441.2,143.242,148.637,12.8819
2761,46644,142.94,148.301,12.7545
2773,46846.8,142.643,147.968,12.4797
2785,47049.6,142.347,147.636,12.446
2797,47252.4,142.054,147.308,12.4039
2809,47455.2,141.763,146.983,12.2056
2821,47658,141.471,146.659,12.1894
2833,47860.8,141.178,146.338,12.2327
2845,48063.6,140.889,146.018,12.1971
2857,48266.4,140.602,145.701,11.9141
2869,48469.2,140.32,145.386,11.6432
2881,48672,140.039,145.073,11.6017
2893,48874.8,139.76,144.761,11.7801
2905,49077.6,139.481,144.453,11.6226
2917,49280.4,139.206,144.147,11.66457
2929,49483.2,138.932,143.842,11.5632
2941,49686,138.66,143.539,11.1318
2953,49888.8,138.388,143.239,11.0982
2965,50091.6,138.12,142.941,11.0846
2977,50294.4,137.854,142.644,10.7743
2989,50497.2,137.588,142.349,10.8771
3001,50700,137.324,142.058,10.7826
3013,50902.8,137.064,141.767,10.6455
3025,51105.6,136.804,141.478,10.5536
3037,51308.4,136.547,141.191,10.5211
3049,51511.2,136.289,140.906,10.3848
3061,51714,136.025,140.624,10.2211
3073,51916.8,135.756,140.342,10.20633
3085,52119.6,135.488,140.059,10.0653
3097,52322.4,135.225,139.78,10.0779
3109,52525.2,134.97,139.502,9.985086
3121,52728,134.723,139.224,9.865527
3133,52930.8,134.481,138.949,9.728132
3145,53133.6,134.243,138.677,9.716068
3157,53336.4,134.006,138.406,9.639081
3169,53539.2,133.772,138.137,9.46372
3181,53742,133.54,137.872,9.432954
3193,53944.8,133.31,137.609,9.328213
3205,54147.6,133.083,137.348,9.388908
3217,54350.4,132.857,137.089,9.167737
3229,54553.2,132.63,136.831,9.135259
3241,54756,132.404,136.576,9.131794
3253,54958.8,132.177,136.322,9.04581
3265,55161.6,131.949,136.071,8.934731
3277,55364.4,131.719,135.821,8.824887
3289,55567.2,131.492,135.57,8.595229
3301,55770,131.269,135.323,8.484787
3313,55972.8,131.047,135.0772,8.612889
3325,56175.6,130.828,134.834,8.552727
3337,56378.4,130.609,134.591,8.44774
3349,56581.2,130.39,134.35,8.322134
3361,56784,130.173,134.11,8.245495
3373,56986.8,129.958,133.873,8.218989
3385,57189.6,129.742,133.636,7.954032
3397,57392.4,129.53,133.401,7.99286
3409,57595.2,129.319,133.166,7.970651
3421,57798,129.11,132.935,7.885757
3433,58000.8,128.904,132.704,7.803855
3445,58203.6,128.701,132.474,7.809128
3457,58406.4,128.498,132.247,7.721664
3469,58609.2,128.296,132.021,7.714854
3481,58812,128.1,131.798,7.681711
3493,59014.8,127.907,131.575,7.595736
3505,59217.6,127.715,131.355,7.434459
3517,59420.4,127.525,131.137,7.345363
3529,59623.2,127.335,130.92,7.262503
3541,59826,127.145,130.705,7.236999
3553,60028.8,126.953,130.4914,7.156116
3565,60231.6,126.761,130.279,7.0949
3577,60434.4,126.569,130.068,7.093501
3589,60637.2,126.376,129.858,6.978461
3601,60840,126.184,129.649,6.795271
3613,61042.8,125.993,129.441,6.861298
3625,61245.6,125.806,129.234,6.857269
3637,61448.4,125.619,129.029,6.754946
3649,61651.2,125.433,128.825,6.764149
3661,61854,125.249,128.622,6.745297
3673,62056.8,125.065,128.42,6.698828
3685,62259.6,124.884,128.22,6.62155
3697,62462.4,124.706,128.022,6.569186
3709,62665.2,124.53,127.824,6.525517
3721,62868,124.353,127.627,6.424709
3733,63070.8,124.176,127.432,6.297284
3745,63273.6,124.001,127.237,6.265246
3757,63476.4,123.828,127.045,6.255842
3769,63679.2,123.657,126.853,6.136008
3781,63882,123.486,126.663,6.168389
3793,64084.8,123.317,126.474,6.037229
3805,64287.6,123.148,126.286,6.024586
3817,64490.4,122.977,126.098,5.950168
3829,64693.2,122.807,125.913,5.869379
3841,64896,122.637,125.729,5.699928
3853,65098.8,122.47,125.545,5.807461
3865,65301.6,122.302,125.363,5.843411
3877,65504.4,122.136,125.181,5.809201
3889,65707.2,121.971,125,5.729937
3901,65910,121.805,124.82,5.636352
3913,66112.8,121.642,124.642,5.526482
3925,66315.6,121.482,124.463,5.553182
3937,66518.4,121.324,124.288,5.456164
3949,66721.2,121.165,124.112,5.409538
3961,66924,121.006,123.937,5.401272
3973,67126.8,120.847,123.763,5.378519
3985,67329.6,120.686,123.591,5.369286
3997,67532.4,120.528,123.418,5.375102
4009,67735.2,120.372,123.248,5.361514
4021,67938,120.221,123.077,5.244353
4033,68140.8,120.072,122.908,5.208921
4045,68343.6,119.926,122.7414,5.131157
4057,68546.4,119.783,122.576,5.064026
4069,68749.2,119.642,122.411,4.985052
4081,68952,119.499,122.248,4.920693
4093,69154.8,119.351,122.087,4.894536
4105,69357.6,119.203,121.925,4.894702
4117,69560.4,119.057,121.765,4.858988
4129,69763.2,118.91,121.606,4.756519
4141,69966,118.757,121.446,4.713376
4153,70168.8,118.598,121.288,4.698598
4165,70371.6,118.435,121.129,4.712635
4177,70574.4,118.274,120.97,4.728139
4189,70777.2,118.119,120.81,4.72578
4201,70980,117.969,120.652,4.704322
4213,71182.8,117.827,120.493,4.647561
4225,71385.6,117.692,120.337,4.626804
4237,71588.4,117.56,120.182,4.606249
4249,71791.2,117.43,120.028,4.519192
4261,71994,117.3,119.876,4.447021
4273,72196.8,117.168,119.725,4.370305
4285,72399.6,117.039,119.576,4.353045
4297,72602.4,116.911,119.427,4.311577
4309,72805.2,116.786,119.28,4.257138
4321,73008,116.658,119.134,4.696646
4333,73210.8,116.531,118.99,4.454878
4345,73413.6,116.405,118.846,4.277541
4357,73616.4,116.284,118.703,4.145483
4369,73819.2,116.166,118.563,4.073186
4381,74022,116.047,118.423,4.014508
4393,74224.8,115.928,118.285,3.945119
4405,74427.6,115.811,118.148,3.919355
4417,74630.4,115.693,118.012,3.84383
4429,74833.2,115.573,117.877,3.7958
4441,75036,115.451,117.743,3.729693
4453,75238.8,115.33,117.61,3.696763
4465,75441.6,115.211,117.476,3.675881
4477,75644.4,115.095,117.345,3.654609
4489,75847.2,114.981,117.214,3.612314
4501,76050,114.8655,117.085,3.534114
4513,76252.8,114.751,116.956,3.505508
4525,76455.6,114.639,116.829,3.46171
4537,76658.4,114.531,116.702,3.405952
4549,76861.2,114.423,116.576,3.397293
4561,77064,114.313,116.452,3.334203
4573,77266.8,114.202,116.328,3.273961
4585,77469.6,114.093,116.205,3.275221
4597,77672.4,113.989,116.084,3.209735
4609,77875.2,113.886,115.963,3.168271
4621,78078,113.788,115.844,3.136246
4633,78280.8,113.689,115.726,3.085022
4645,78483.6,113.589,115.609,3.03761
4657,78686.4,113.487,115.492,3.003854
4669,78889.2,113.375,115.377,2.977817
4681,79092,113.256,115.261,2.941551
4693,79294.8,113.1258,115.145,2.920818
4705,79497.6,112.988,115.028,2.916602
4717,79700.4,112.849,114.909,2.952635
4729,79903.2,112.713,114.789,2.969525
4741,80106,112.588,114.669,2.985549
4753,80308.8,112.479,114.549,2.998583
4765,80511.6,112.385,114.429,2.970048
4777,80714.4,112.299,114.312,2.944146
4789,80917.2,112.22,114.197,2.87891
4801,81120,112.141,114.084,2.83075
4813,81322.8,112.067,113.974,2.765835
4825,81525.6,111.997,113.865,2.715918
4837,81728.4,111.926,113.759,2.633782
4849,81931.2,111.855,113.655,2.566028
4861,82134,111.791,113.554,2.509655
4873,82336.8,111.734,113.455,2.441636
4885,82539.6,111.683,113.359,2.385308
4897,82742.4,111.635,113.265,2.319147
4909,82945.2,111.589,113.175,2.23125
4921,83148,111.543,113.087,2.153866
4933,83350.8,111.496,113.002,2.065995
4945,83553.6,111.448,112.918,1.983777
4957,83756.4,111.401,112.838,1.921535
4969,83959.2,111.354,112.759,1.830535
4981,84162,111.308,112.681,1.77115
4993,84364.8,111.262,112.607,1.716545
5005,84567.6,111.212,112.534,1.638647
5017,84770.4,111.158,112.462,1.582054
5029,84973.2,111.1034,112.39,1.559021
5041,85176,111.047,112.321,1.513924
5053,85378.8,110.985,112.251,1.483471
5065,85581.6,110.92,112.182,1.471348
5077,85784.4,110.859,112.113,1.442974
5089,85987.2,110.801,112.045,1.415794
5101,86190,110.749,111.978,1.405749
5113,86392.8,110.697,111.9112,1.378817
5125,86595.6,110.648,111.846,1.345399
5137,86798.4,110.599,111.782,1.317164
5149,87001.2,110.541,111.718,1.305486
5161,87204,110.47,111.654,1.288267
5173,87406.8,110.394,111.589,1.280875
5185,87609.6,110.317,111.523,1.294712
5197,87812.4,110.248,111.457,1.292562
5209,88015.2,110.191,111.392,1.308262
5221,88218,110.136,111.327,1.289779
5233,88420.8,110.073,111.262,1.279906
5245,88623.6,110.004,111.198,1.277423
5257,88826.4,109.939,111.133,1.271859
5269,89029.2,109.893,111.068,1.274615
5281,89232,109.861,111.005,1.249572
5293,89434.8,109.832,110.944,1.213988
5305,89637.6,109.799,110.886,1.159493
5317,89840.4,109.769,110.828,1.110207
5329,90043.2,109.733,110.773,1.051273
5341,90246,109.683,110.718,1.019209
5353,90448.8,109.62,110.6621,1.015911
5365,90651.6,109.548,110.606,1.015396
5377,90854.4,109.483,110.55,1.009622
5389,91057.2,109.436,110.494,1.015306
5401,91260,109.406,110.438,1.000221
5413,91462.8,109.382,110.384,0.973628
5425,91665.6,109.3617,110.332,0.9408
5437,91868.4,109.34,110.283,0.906685
5449,92071.2,109.306,110.233,0.853301
5461,92274,109.267,110.186,0.825327
5473,92476.8,109.231,110.139,0.796719
5485,92679.6,109.2,110.092,0.774612
5497,92882.4,109.171,110.047,0.742843
5509,93085.2,109.145,110.002,0.730022
5521,93288,109.116,109.96,0.696337
5533,93490.8,109.08,109.916,0.67135
5545,93693.6,109.043,109.875,0.649453
5557,93896.4,109.009,109.832,0.636263
5569,94099.2,108.978,109.791,0.625553
5581,94302,108.953,109.7508,0.603928
5593,94504.8,108.928,109.711,0.58166
5605,94707.6,108.907,109.673,0.547526
5617,94910.4,108.891,109.636,0.519296
5629,95113.2,108.878,109.6,0.493541
5641,95316,108.869,109.565,0.465271
5653,95518.8,108.862,109.533,0.418251
5665,95721.6,108.857,109.501,0.374018
5677,95924.4,108.85,109.472,0.329132
5689,96127.2,108.842,109.443,0.285475
5701,96330,108.835,109.416,0.262728
5713,96532.8,108.825,109.39,0.224034
5725,96735.6,108.815,109.365,0.189074
5737,96938.4,108.805,109.342,0.155661
5749,97141.2,108.795,109.318,0.131616
5761,97344,108.785,109.296,0.105686
5773,97546.8,108.774,109.274,0.084124
5785,97749.6,108.764,109.252,0.073816
5797,97952.4,108.753,109.232,0.054119
5809,98155.2,108.74,109.212,0.028784
5821,98358,108.728,109.193,0.0097
5833,98560.8,108.716,109.173,-0.004381
5845,98763.6,108.705,109.155,-0.003756
5857,98966.4,108.693,109.137,-0.011896
5869,99169.2,108.68,109.119,-0.025987
5881,99372,108.669,109.101,-0.043212
5893,99574.8,108.657,109.085,-0.057937
5905,99777.6,108.646,109.068,-0.06045
5917,99980.4,108.634,109.051,-0.073927
5929,100183.2,108.624,109.035,-0.075816
5941,100386,108.614,109.02,-0.088357
5953,100588.8,108.605,109.004,-0.101842
5965,100791.6,108.597,108.99,-0.117209
5977,100994.4,108.589,108.975,-0.123491
5989,101197.2,108.583,108.961,-0.136356
6001,101400,108.577,108.947,-0.154553
6013,101602.8,108.571,108.934,-0.161151
6025,101805.6,108.565,108.921,-0.171828
6037,102008.4,108.558,108.909,-0.180624
6049,102211.2,108.55,108.897,-0.19538
6061,102414,108.543,108.885,-0.199476
6073,102616.8,108.533,108.873,-0.215176
6085,102819.6,108.524,108.862,-0.221782
6097,103022.4,108.515,108.851,-0.225251
6109,103225.2,108.505,108.839,-0.23531
6121,103428,108.496,108.828,-0.224348
6133,103630.8,108.488,108.817,-0.232838
6145,103833.6,108.48,108.806,-0.236624
6157,104036.4,108.472,108.796,-0.243547
6169,104239.2,108.465,108.785,-0.250157
6181,104442,108.457,108.775,-0.259909
6193,104644.8,108.449,108.765,-0.266205
6205,104847.6,108.441,108.755,-0.272819
6217,105050.4,108.433,108.745,-0.263106
6229,105253.2,108.426,108.735,-0.266893
6241,105456,108.435,108.726,-0.282927
6253,105658.8,108.711,108.722,-0.34511
6265,105861.6,109.267,108.741,-0.634236
6277,106064.4,109.802,108.79,-1.148742
6289,106267.2,110.232,108.864,-1.767007
6301,106470,110.592,108.958,-2.368888
6313,106672.8,110.924,109.067,-2.887816
6325,106875.6,111.252,109.19,-3.342033
6337,107078.4,111.585,109.326,-3.748181
6349,107281.2,111.923,109.473,-4.106921
6361,107484,112.262,109.633,-4.454827
6373,107686.8,112.601,109.802,-4.779429
6385,107889.6,112.941,109.983,-5.067039
6397,108092.4,113.28,110.172,-5.360379
6409,108295.2,113.62,110.37,-5.621812
6421,108498,113.959,110.578,-5.884906
6433,108700.8,114.298,110.792,-6.134506
6445,108903.6,114.636,111.015,-6.355498
6457,109106.4,114.976,111.2452,-6.584952
6469,109309.2,115.313,111.48,-6.788192
6481,109512,115.648,111.722,-6.979045
6493,109714.8,115.984,111.97,-7.17113
6505,109917.6,116.326,112.222,-7.343887
6517,110120.4,116.668,112.479,-7.505425
6529,110323.2,117.007,112.743,-7.680982
6541,110526,117.347,113.009,-7.828318
6553,110728.8,117.684,113.28,-7.991279
6565,110931.6,118.022,113.556,-8.139152
6577,111134.4,118.362,113.834,-8.273599
6589,111337.2,118.7,114.115,-8.419405
6601,111540,119.034,114.402,-8.542079
6613,111742.8,119.369,114.69,-8.667818
6625,111945.6,119.712,114.981,-8.802486
6637,112148.4,120.055,115.274,-8.911923
6649,112351.2,120.394,115.572,-9.048495
6661,112554,120.732,115.87,-9.186877
6673,112756.8,121.069,116.171,-9.323655
6685,112959.6,121.404,116.474,-9.456539
6697,113162.4,121.742,116.778,-9.597959
6709,113365.2,122.083,117.085,-9.739274
6721,113568,122.42,117.394,-9.886119
6733,113770.8,122.758,117.704,-10.0564
6745,113973.6,123.096,118.016,-10.2257
6757,114176.4,123.433,118.33,-10.4235
6769,114379.2,123.769,118.644,-10.6246
6781,114582,124.11,118.959,-10.85227
6793,114784.8,124.45,119.275,-11.0859
6805,114987.6,124.788,119.594,-11.3677
6817,115190.4,125.125,119.912,-11.6353
6829,115393.2,125.462,120.232,-11.9404
6841,115596,125.7992,120.553,-12.2206
6853,115798.8,126.139,120.874,-12.4812
6865,116001.6,126.479,121.197,-12.6833
6877,116204.4,126.816,121.519,-12.8036
6889,116407.2,127.155,121.843,-12.8224
6901,116610,127.495,122.168,-12.7095
6913,116812.8,127.829,122.494,-12.5496
6925,117015.6,128.164,122.818,-12.3668
6937,117218.4,128.505,123.145,-12.2239
6949,117421.2,128.846,123.472,-12.1336
6961,117624,129.184,123.8,-12.0864
6973,117826.8,129.523,124.128,-12.0758
6985,118029.6,129.86,124.456,-12.0868
6997,118232.4,130.195,124.786,-12.1095
7009,118435.2,130.53,125.114,-12.1289
7021,118638,130.87,125.443,-12.1359
7033,118840.8,131.21,125.772,-12.1543
7045,119043.6,131.549,126.103,-12.184
7057,119246.4,131.887,126.434,-12.2109
7069,119449.2,132.221,126.764,-12.2319
7081,119652,132.557,127.094,-12.2481
7093,119854.8,132.898,127.426,-12.2662
7105,120057.6,133.24,127.757,-12.2981
7117,120260.4,133.574,128.087,-12.325
7129,120463.2,133.904,128.419,-12.3399
7141,120666,134.234,128.748,-12.3374
7153,120868.8,134.57,129.077,-12.3404
7165,121071.6,134.909,129.407,-12.3426
7177,121274.4,135.247,129.736,-12.34762
7189,121477.2,135.585,130.066,-12.3562
7201,121680,135.921,130.394,-12.3629
7213,121882.8,136.26,130.721,-12.35395
7225,122085.6,136.598,131.048,-12.3478
7237,122288.4,136.935,131.375,-12.355
7249,122491.2,137.271,131.701,-12.3599
7261,122694,137.609,132.027,-12.3613
7273,122896.8,137.947,132.352,-12.356
7285,123099.6,138.289,132.678,-12.3658
7297,123302.4,138.624,133.003,-12.36469
7309,123505.2,138.95,133.327,-12.3592
7321,123708,139.291,133.6491,-12.3297
7333,123910.8,139.642,133.971,-12.3237
7345,124113.6,139.996,134.296,-12.3494
7357,124316.4,140.345,134.621,-12.3934
7369,124519.2,140.678,134.949,-12.4443
7381,124722,140.989,135.275,-12.4785
7393,124924.8,141.324,135.599,-12.4834
7405,125127.6,141.679,135.924,-12.4809
7417,125330.4,142.034,136.251,-12.5125
7429,125533.2,142.384,136.58,-12.5697
7441,125736,142.727,136.911,-12.62892
7453,125938.8,143.066,137.244,-12.7165
7465,126141.6,143.402,137.577,-12.7859
7477,126344.4,143.734,137.912,-12.8323
7489,126547.2,144.066,138.247,-12.8934
7501,126750,144.404,138.583,-12.9421
7513,126952.8,144.745,138.919,-12.9743
7525,127155.6,145.088,139.257,-13.0102
7537,127358.4,145.429,139.594,-13.0366
7549,127561.2,145.761,139.934,-13.0898
7561,127764,146.089,140.273,-13.1264
7573,127966.8,146.422,140.611,-13.1359
7585,128169.6,146.763,140.948,-13.1364
7597,128372.4,147.106,141.286,-13.1406
7609,128575.2,147.45,141.627,-13.1628
7621,128778,147.789,141.967,-13.1886
7633,128980.8,148.125,142.308,-13.1831
7645,129183.6,148.459,142.648,-13.19509
7657,129386.4,148.789,142.988,-13.18217
7669,129589.2,149.124,143.328,-13.127
7681,129792,149.464,143.667,-13.07
7693,129994.8,149.807,144.007,-12.9949
7705,130197.6,150.149,144.348,-12.905
7717,130400.4,150.486,144.688,-12.7652
7729,130603.2,150.819,145.029,-12.5907
7741,130806,151.155,145.369,-12.3507
7753,131008.8,151.496,145.709,-12.0258
7765,131211.6,151.837,146.05,-11.6325
7777,131414.4,152.171,146.391,-11.1338
7789,131617.2,152.506,146.731,-10.4805
7801,131820,152.844,147.071,-9.693748
7813,132022.8,153.179,147.41,-8.704292
7825,132225.6,153.515,147.75,-7.446981
7837,132428.4,153.857,148.09,-5.903283
7849,132631.2,154.2,148.43,-3.956893
7861,132834,154.542,148.771,-1.491825
7873,133036.8,154.884,149.112,1.573118
7885,133239.6,155.217,149.453,5.412536
7897,133442.4,155.549,149.794,10.16821
7909,133645.2,155.888,150.136,15.8433
7921,133848,156.226,150.476,22.371
7933,134050.8,156.561,150.818,29.3657
7945,134253.6,156.898,151.159,36.1309
7957,134456.4,157.238,151.5,41.6257
7969,134659.2,157.581,151.842,44.6369
7981,134862,157.923,152.184,44.1847
7993,135064.8,158.258,152.526,40.0438
8005,135267.6,158.589,152.867,32.8791
8017,135470.4,158.922,153.207,24.0689
8029,135673.2,159.262,153.546,15.1094
8041,135876,159.604,153.885,7.143698
8053,136078.8,159.947,154.225,0.803283
8065,136281.6,160.287,154.565,-3.83263
8077,136484.4,160.619,154.904,-6.951908
8089,136687.2,160.951,155.243,-8.915297
8101,136890,161.288,155.581,-10.0969
8113,137092.8,161.629,155.919,-10.7888
8125,137295.6,161.973,156.258,-11.15516
8137,137498.4,162.313,156.596,-11.3785
8149,137701.2,162.647,156.934,-11.5338
8161,137904,162.98,157.274,-11.5944
8173,138106.8,163.317,157.612,-11.6502
8185,138309.6,163.658,157.95,-11.70371
8197,138512.4,164.002,158.289,-11.7158
8209,138715.2,164.342,158.628,-11.7552
8221,138918,164.675,158.966,-11.767
8233,139120.8,165.01,159.305,-11.7919
8245,139323.6,165.35,159.644,-11.7846
8257,139526.4,165.688,159.982,-11.8043
8269,139729.2,166.026,160.322,-11.8156
8281,139932,166.363,160.661,-11.838
8293,140134.8,166.7,160.999,-11.834
8305,140337.6,167.038,161.339,-11.8589
8317,140540.4,167.376,161.676,-11.864
8329,140743.2,167.711,162.015,-11.8684
8341,140946,168.05,162.353,-11.9132
8353,141148.8,168.393,162.692,-11.9285
8365,141351.6,168.736,163.03,-11.95355
8377,141554.4,169.072,163.37,-11.9472
8389,141757.2,169.409,163.709,-11.9493
8401,141960,169.748,164.05,-12.0083
8413,142162.8,170.089,164.389,-12.0281
8425,142365.6,170.425,164.729,-12.08016
8437,142568.4,170.757,165.069,-12.0833
8449,142771.2,171.091,165.408,-12.0833
8461,142974,171.431,165.7461,-12.1142
8473,143176.8,171.771,166.086,-12.1224
8485,143379.6,172.106,166.425,-12.13344
8497,143582.4,172.443,166.764,-12.1669
8509,143785.2,172.783,167.103,-12.2079
8521,143988,173.125,167.441,-12.3154
8533,144190.8,173.465,167.78,-12.3764
8545,144393.6,173.8,168.119,-12.4933
8557,144596.4,174.136,168.458,-12.6673
8569,144799.2,174.476,168.796,-12.8958
8581,145002,174.817,169.136,-13.2004
8593,145204.8,175.154,169.475,-13.5636
8605,145407.6,175.488,169.814,-13.8746
8617,145610.4,175.825,170.153,-13.9807
8629,145813.2,176.166,170.4923,-13.5067
8641,146016,176.507,170.831,-12.3702
8653,146218.8,176.844,171.171,-10.7778
8665,146421.6,177.178,171.51,-11.5116
8677,146624.4,177.516,171.849,-11.95453
8689,146827.2,177.856,172.188,-12.2617
8701,147030,178.199,172.528,-12.3734
8713,147232.8,178.537,172.868,-12.3768
8725,147435.6,178.872,173.208,-12.4666
8737,147638.4,179.205,173.547,-12.65312
8749,147841.2,179.539,173.886,-12.7775
8761,148044,179.875,174.224,-12.9118
8773,148246.8,180.216,174.562,-13.085
8785,148449.6,180.561,174.901,-13.4792
8797,148652.4,180.903,175.239,-14.4019
8809,148855.2,181.241,175.5791,-16.9538
8821,149058,181.577,175.919,-26.1741
8833,149260.8,181.914,176.257,-51.8791
8845,149463.6,182.246,176.593,-91.4093
8857,149666.4,182.58,176.928,-132.814
8869,149869.2,182.92,177.261,-160.04
8881,150072,183.264,177.595,-156.525
8893,150274.8,183.606,177.928,-166.631
8905,150477.6,183.943,178.265,-104.776
8917,150680.4,184.273,178.604,-55.10997
8929,150883.2,184.607,178.943,-33.6404
8941,151086,184.947,179.282,-24.0699
8953,151288.8,185.291,179.621,-19.7629
8965,151491.6,185.634,179.962,-17.7315
8977,151694.4,185.973,180.302,-16.9401
8989,151897.2,186.308,180.642,-16.5816
9001,152100,186.639,180.982,-16.4578
9013,152302.8,186.973,181.321,-16.4334
9025,152505.6,187.314,181.66,-16.395
9037,152708.4,187.658,182,-16.4424
9049,152911.2,188,182.34,-16.4757
9061,153114,188.334,182.679,-16.5443
9073,153316.8,188.663,183.018,-16.5972
9085,153519.6,188.999,183.357,-16.4786
9097,153722.4,189.34,183.694,-16.4664
9109,153925.2,189.686,184.032,-16.4894
9121,154128,190.029,184.371,-16.5543
9133,154330.8,190.364,184.71,-16.6151
9145,154533.6,190.698,185.049,-16.6637
9157,154736.4,191.037,185.388,-16.7244
9169,154939.2,191.378,185.727,-16.5338
9181,155142,191.717,186.067,-16.5613
9193,155344.8,192.052,186.405,-16.67238
9205,155547.6,192.389,186.745,-16.766
9217,155750.4,192.73,187.084,-16.7023
9229,155953.2,193.071,187.423,-16.8128
9241,156156,193.405,187.763,-16.95931
9253,156358.8,193.738,188.104,-17.0385
9265,156561.6,194.078,188.442,-17.0465
9277,156764.4,194.419,188.781,-16.9968
9289,156967.2,194.76,189.121,-16.9763
9301,157170,195.099,189.462,-17.02868
9313,157372.8,195.434,189.802,-17.1546
9325,157575.6,195.765,190.142,-17.19504
9337,157778.4,196.097,190.479,-17.1479
9349,157981.2,196.437,190.818,-17.14
9361,158184,196.782,191.156,-17.1769
9373,158386.8,197.125,191.495,-17.2376
9385,158589.6,197.46,191.834,-17.2331
9397,158792.4,197.786,192.172,-17.4448
9409,158995.2,198.119,192.51,-17.4641
9421,159198,198.463,192.846,-17.32754
9433,159400.8,198.81,193.182,-17.3713
9445,159603.6,199.154,193.52,-17.4823
9457,159806.4,199.492,193.858,-17.508
9469,160009.2,199.826,194.197,-17.465
9481,160212,200.166,194.535,-17.48475
9493,160414.8,200.509,194.874,-17.579
9505,160617.6,200.847,195.213,-17.7502
9517,160820.4,201.184,195.554,-17.8065
9529,161023.2,201.523,195.893,-17.81496
9541,161226,201.856,196.234,-17.8383
9553,161428.8,202.191,196.573,-17.9836
9565,161631.6,202.531,196.913,-18.0665
9577,161834.4,202.874,197.253,-18.0309
9589,162037.2,203.211,197.595,-18.1099
9601,162240,203.541,197.934,-18.0956
9613,162442.8,203.876,198.274,-18.194
9625,162645.6,204.217,198.613,-18.1029
9637,162848.4,204.56,198.952,-18.3046
9649,163051.2,204.896,199.292,-18.3947
9661,163254,205.232,199.632,-18.3966
9673,163456.8,205.572,199.971,-18.5123
9685,163659.6,205.914,200.311,-18.4606
9697,163862.4,206.25,200.652,-18.6639
9709,164065.2,206.577,200.991,-18.8164
9721,164268,206.91,201.329,-18.688
9733,164470.8,207.252,201.667,-18.6439
9745,164673.6,207.599,202.004,-18.5657
9757,164876.4,207.944,202.343,-18.652
9769,165079.2,208.281,202.683,-18.70939
9781,165282,208.616,203.022,-18.7869
9793,165484.8,208.955,203.362,-18.962
9805,165687.6,209.296,203.701,-18.9039
9817,165890.4,209.635,204.041,-19.0169
9829,166093.2,209.972,204.382,-19.1062
9841,166296,210.31,204.723,-19.1292
9853,166498.8,210.646,205.064,-19.3114
9865,166701.6,210.981,205.404,-19.3705
9877,166904.4,211.319,205.745,-19.5325
9889,167107.2,211.656,206.086,-19.4976
9901,167310,211.996,206.427,-19.5201
9913,167512.8,212.334,206.768,-19.5336
9925,167715.6,212.673,207.108,-19.5888
9937,167918.4,213.008,207.449,-19.8534
9949,168121.2,213.343,207.789,-19.83079
9961,168324,213.684,208.129,-19.96427
9973,168526.8,214.024,208.469,-20.1122
9985,168729.6,214.363,208.81,-20.0713
9997,168932.4,214.702,209.151,-20.1144
10009,169135.2,215.04,209.491,-20.1839
10021,169338,215.378,209.833,-20.3838
10033,169540.8,215.716,210.174,-20.4489
10045,169743.6,216.054,210.515,-20.6036
10057,169946.4,216.392,210.857,-20.5637
10069,170149.2,216.7298,211.198,-20.6444
10081,170352,217.067,211.539,-20.76265
10093,170554.8,217.408,211.881,-20.76118
10105,170757.6,217.746,212.223,-20.8445
10117,170960.4,218.084,212.564,-20.6952
10129,171163.2,218.422,212.906,-20.8592
10141,171366,218.76,213.249,-21.0325
10153,171568.8,219.099,213.591,-21.0831
10165,171771.6,219.439,213.933,-21.2927
10177,171974.4,219.777,214.276,-21.5766
10189,172177.2,220.1141,214.619,-21.573
10201,172380,220.451,214.962,-21.6005
10213,172582.8,220.788,215.305,-21.7355
10225,172785.6,221.125,215.648,-21.9142
10237,172988.4,221.462,215.99,-22.0072
10249,173191.2,221.798,216.332,-22.0147
10261,173394,222.133,216.675,-22.22
10273,173596.8,222.471,217.017,-22.36329
10285,173799.6,222.81,217.359,-22.3692
10297,174002.4,223.148,217.701,-22.4549
10309,174205.2,223.487,218.042,-22.4062
10321,174408,223.826,218.383,-22.6382
10333,174610.8,224.165,218.724,-22.6369
10345,174813.6,224.505,219.066,-22.7989
10357,175016.4,224.844,219.408,-22.8357
10369,175219.2,225.182,219.75,-22.8822
10381,175422,225.516,220.093,-22.9325
10393,175624.8,225.849,220.434,-23.1085
10405,175827.6,226.184,220.775,-23.3268
10417,176030.4,226.519,221.115,-23.5047
10429,176233.2,226.849,221.454,-23.6197
10441,176436,227.175,221.791,-23.62
10453,176638.8,227.502,222.125,-23.6402
10465,176841.6,227.823,222.456,-23.6348
10477,177044.4,228.129,222.782,-23.5893
10489,177247.2,228.411,223.098,-23.322
10501,177450,228.733,223.403,-22.9595
10513,177652.8,229.088,223.701,-22.688
10525,177855.6,229.461,223.999,-22.3186
10537,178058.4,229.839,224.299,-22.0545
10549,178261.2,230.207,224.602,-22.2138
10561,178464,230.564,224.909,-22.4444
10573,178666.8,230.916,225.22,-22.836
10585,178869.6,231.261,225.534,-23.2628
10597,179072.4,231.606,225.85,-23.4847
10609,179275.2,231.951,226.17,-23.7997
10621,179478,232.296,226.492,-24.1649
10633,179680.8,232.639,226.815,-24.5133
10645,179883.6,232.979,227.143,-24.8507
10657,180086.4,233.319,227.474,-25.2154
10669,180289.2,233.661,227.806,-25.489
10681,180492,233.999,228.14,-25.8654
10693,180694.8,234.334,228.477,-26.13246
10705,180897.6,234.671,228.815,-26.5043
10717,181100.4,235.014,229.155,-26.6986
10729,181303.2,235.354,229.498,-27.1331
10741,181506,235.696,229.843,-27.4792
10753,181708.8,236.035,230.189,-27.9942
10765,181911.6,236.372,230.538,-28.31602
10777,182114.4,236.706,230.888,-28.6691
10789,182317.2,237.043,231.24,-29.0647
10801,182520,237.381,231.592,-29.353
10813,182722.8,237.718,231.945,-29.749
10825,182925.6,238.053,232.3,-30.0473
10837,183128.4,238.388,232.655,-30.3716
10849,183331.2,238.725,233.01,-30.6569
10861,183534,239.059,233.365,-30.9752
10873,183736.8,239.395,233.72,-31.1736
10885,183939.6,239.73,234.074,-31.49333
10897,184142.4,240.068,234.428,-31.8368
10909,184345.2,240.404,234.782,-32.27273
10921,184548,240.741,235.135,-32.4548
10933,184750.8,241.078,235.49,-32.821
10945,184953.6,241.416,235.843,-33.0813
10957,185156.4,241.752,236.195,-33.3987
10969,185359.2,242.09,236.547,-33.7866
10981,185562,242.427,236.9,-34.0325
10993,185764.8,242.765,237.251,-34.3303
11005,185967.6,243.104,237.603,-34.6535
11017,186170.4,243.439,237.954,-34.9314
11029,186373.2,243.777,238.304,-35.3431
11041,186576,244.113,238.655,-35.6969
11053,186778.8,244.45,239.005,-36.0129
11065,186981.6,244.786,239.353,-36.40385
11077,187184.4,245.122,239.702,-36.7919
11089,187387.2,245.458,240.05,-37.1424
11101,187590,245.796,240.397,-37.4842
11113,187792.8,246.137,240.7437,-37.9419
11125,187995.6,246.474,241.091,-38.4057
11137,188198.4,246.814,241.437,-38.911
11149,188401.2,247.153,241.784,-39.2653
11161,188604,247.494,242.129,-39.7909
11173,188806.8,247.832,242.476,-40.3442
11185,189009.6,248.167,242.822,-40.7973
11197,189212.4,248.504,243.167,-41.3659
11209,189415.2,248.839,243.513,-41.8414
11221,189618,249.178,243.857,-42.345
11233,189820.8,249.515,244.202,-42.946
11245,190023.6,249.853,244.545,-43.6043
11257,190226.4,250.191,244.89,-44.244
11269,190429.2,250.528,245.233,-44.93
11281,190632,250.866,245.577,-45.4776
11293,190834.8,251.204,245.919,-46.0103
11305,191037.6,251.542,246.263,-46.8485
11317,191240.4,251.881,246.605,-47.6893
11329,191443.2,252.218,246.948,-48.4832
11341,191646,252.555,247.29,-49.2145
11353,191848.8,252.893,247.631,-50.03717
11365,192051.6,253.231,247.973,-50.8943
11377,192254.4,253.57,248.315,-51.7824
11389,192457.2,253.908,248.657,-52.6553
11401,192660,254.246,248.998,-53.5002
11413,192862.8,254.583,249.34,-54.4343
11425,193065.6,254.921,249.68,-55.4848
11437,193268.4,255.259,250.021,-56.5739
11449,193471.2,255.597,250.362,-57.6051
11461,193674,255.934,250.702,-58.8546
11473,193876.8,256.273,251.043,-60.0687
11485,194079.6,256.61,251.384,-61.1906
11497,194282.4,256.95,251.724,-62.5506
11509,194485.2,257.288,252.065,-63.9265
11521,194688,257.625,252.405,-65.2207
11533,194890.8,257.963,252.745,-66.5924
11545,195093.6,258.301,253.085,-68.0639
11557,195296.4,258.64,253.424,-69.6481
11569,195499.2,258.977,253.765,-71.2662
11581,195702,259.314,254.104,-72.9756
11593,195904.8,259.653,254.444,-74.7799
11605,196107.6,259.992,254.784,-76.7482
11617,196310.4,260.328,255.124,-78.661
11629,196513.2,260.667,255.463,-80.6154
11641,196716,261.005,255.802,-82.6189
11653,196918.8,261.343,256.142,-84.8055
11665,197121.6,261.681,256.481,-87.0941
11677,197324.4,262.019,256.82,-89.4451
11689,197527.2,262.357,257.159,-91.6729
11701,197730,262.695,257.499,-94.1206
11713,197932.8,263.034,257.838,-96.6809
11725,198135.6,263.369,258.177,-99.3476
11737,198338.4,263.708,258.516,-101.936
11749,198541.2,264.047,258.855,-104.454
11761,198744,264.384,259.194,-106.871
11773,198946.8,264.723,259.532,-109.154
11785,199149.6,265.061,259.871,-111.454
11797,199352.4,265.398,260.209,-113.78
11809,199555.2,265.736,260.548,-116.207
11821,199758,266.073,260.887,-118.587
11833,199960.8,266.414,261.226,-120.828
11845,200163.6,266.752,261.565,-122.189
11857,200366.4,267.091,261.904,-122.44
11869,200569.2,267.428,262.243,-121.897
11881,200772,267.766,262.582,-120.593
11893,200974.8,268.103,262.921,-119.425
11905,201177.6,268.44,263.26,-119.647
11917,201380.4,268.779,263.599,-119.962
11929,201583.2,269.118,263.938,-115.73
11941,201786,269.456,264.2785,-106.152
11953,201988.8,269.795,264.618,-93.7589
11965,202191.6,270.133,264.959,-82.8217
11977,202394.4,270.469,265.3,-62.9358
11989,202597.2,270.805,265.641,-48.4067
12001,202800,271.144,265.982,-40.722
12013,203002.8,271.484,266.324,-36.72188
12025,203205.6,271.822,266.665,-34.4927
12037,203408.4,272.161,267.008,-33.4331
12049,203611.2,272.498,267.349,-32.8331
12061,203814,272.836,267.69,-32.559
12073,204016.8,273.173,268.031,-32.4233
12085,204219.6,273.511,268.372,-32.3579
12097,204422.4,273.85,268.713,-32.3494
12109,204625.2,274.188,269.054,-32.3293
12121,204828,274.526,269.394,-32.2974
12133,205030.8,274.863,269.735,-32.3394
12145,205233.6,275.201,270.076,-32.3645
12157,205436.4,275.538,270.416,-32.3512
12169,205639.2,275.877,270.757,-32.3128
12181,205842,276.214,271.097,-32.3002
12193,206044.8,276.552,271.437,-32.3209
12205,206247.6,276.89,271.777,-32.2989
12217,206450.4,277.228,272.117,-32.2765
12229,206653.2,277.568,272.457,-32.2652
12241,206856,277.906,272.797,-32.25276
12253,207058.8,278.245,273.137,-32.2605
12265,207261.6,278.583,273.476,-32.2545
12277,207464.4,278.92,273.817,-32.2642
12289,207667.2,279.258,274.158,-32.2733
12301,207870,279.597,274.498,-32.2782
12313,208072.8,279.934,274.838,-32.2853
12325,208275.6,280.272,275.1787,-32.2855
12337,208478.4,280.61,275.518,-32.2606
12349,208681.2,280.947,275.859,-32.266
12361,208884,281.286,276.199,-32.2696
12373,209086.8,281.623,276.538,-32.24
12385,209289.6,281.962,276.878,-32.2706
12397,209492.4,282.3,277.218,-32.2697
12409,209695.2,282.637,277.558,-32.2582
12421,209898,282.976,277.898,-32.278
12433,210100.8,283.313,278.238,-32.25676
12445,210303.6,283.652,278.578,-32.2521
12457,210506.4,283.99,278.917,-32.2508
12469,210709.2,284.327,279.257,-32.2727
12481,210912,284.665,279.597,-32.2778
12493,211114.8,285.003,279.936,-32.2758
12505,211317.6,285.341,280.276,-32.2705
12517,211520.4,285.679,280.616,-32.2558
12529,211723.2,286.017,280.956,-32.2604
12541,211926,286.356,281.295,-32.289
12553,212128.8,286.693,281.635,-32.2951
12565,212331.6,287.031,281.975,-32.3005
12577,212534.4,287.369,282.314,-32.2971
12589,212737.2,287.706,282.653,-32.2903
12601,212940,288.045,282.993,-32.2812
12613,213142.8,288.382,283.332,-32.2858
12625,213345.6,288.721,283.672,-32.2975
12637,213548.4,289.059,284.011,-32.3019
12649,213751.2,289.397,284.351,-32.2963
12661,213954,289.735,284.69,-32.308
12673,214156.8,290.073,285.03,-32.3195
12685,214359.6,290.412,285.369,-32.31059
12697,214562.4,290.749,285.708,-32.3228
12709,214765.2,291.087,286.047,-32.3257
12721,214968,291.425,286.387,-32.339
12733,215170.8,291.764,286.726,-32.32389
12745,215373.6,292.101,287.067,-32.3211
12757,215576.4,292.438,287.406,-32.32993
12769,215779.2,292.777,287.744,-32.3207
12781,215982,293.116,288.084,-32.3206
12793,216184.8,293.454,288.423,-32.3227
12805,216387.6,293.791,288.762,-32.31593
12817,216590.4,294.129,289.101,-32.3135
12829,216793.2,294.467,289.44,-32.3157
12841,216996,294.805,289.779,-32.3059
12853,217198.8,295.144,290.118,-32.2974
12865,217401.6,295.482,290.457,-32.2872
12877,217604.4,295.821,290.796,-32.2719
12889,217807.2,296.158,291.134,-32.25983
12901,218010,296.495,291.472,-32.236
12913,218212.8,296.832,291.81,-32.2149
12925,218415.6,297.171,292.147,-32.2066
12937,218618.4,297.509,292.485,-32.1994
12949,218821.2,297.847,292.821,-32.19821
12961,219024,298.185,293.158,-32.1953
12973,219226.8,298.522,293.495,-32.1807
12985,219429.6,298.861,293.83,-32.141
12997,219632.4,299.192,294.165,-32.09024
13009,219835.2,299.223,294.49,-31.9763
13021,220038,299.198,294.79,-31.4648
13033,220240.8,299.179,295.068,-30.3576
13045,220443.6,299.172,295.323,-28.824
13057,220646.4,299.168,295.56,-27.0595
13069,220849.2,299.166,295.7787,-25.226
13081,221052,299.165,295.981,-23.407
13093,221254.8,299.163,296.166,-21.6525
13105,221457.6,299.162,296.338,-19.9801
13117,221660.4,299.162,296.496,-18.4118
13129,221863.2,299.161,296.641,-16.9375
13141,222066,299.158,296.775,-15.56684
13153,222268.8,299.156,296.898,-14.2912
13165,222471.6,299.153,297.01,-13.1075
13177,222674.4,299.15,297.113,-12.0112
13189,222877.2,299.15,297.208,-10.9825
13201,223080,299.149,297.295,-10.0296
13213,223282.8,299.15,297.375,-9.157908
13225,223485.6,299.151,297.448,-8.354388
13237,223688.4,299.151,297.516,-7.617135
13249,223891.2,299.15,297.577,-6.947853
13261,224094,299.15,297.633,-6.321778
13273,224296.8,299.149,297.686,-5.747475
13285,224499.6,299.15,297.733,-5.227168
13297,224702.4,299.149,297.778,-4.746409
13309,224905.2,299.149,297.818,-4.301249
13321,225108,299.15,297.854,-3.898022
13333,225310.8,299.152,297.889,-3.523153
13345,225513.6,299.154,297.92,-3.192439
13357,225716.4,299.155,297.949,-2.88338
13369,225919.2,299.155,297.977,-2.619824
13381,226122,299.156,298.002,-2.374313
13393,226324.8,299.156,298.025,-2.152676
13405,226527.6,299.155,298.047,-1.94787
13417,226730.4,299.155,298.067,-1.756121
13429,226933.2,299.154,298.085,-1.577426
13441,227136,299.153,298.101,-1.41041
13453,227338.8,299.153,298.116,-1.264511
13465,227541.6,299.152,298.131,-1.121018
13477,227744.4,299.151,298.144,-0.976845
13489,227947.2,299.152,298.156,-0.844862
13501,228150,299.152,298.167,-0.729357
13513,228352.8,299.151,298.176,-0.622436
13525,228555.6,299.15,298.186,-0.522039
13537,228758.4,299.148,298.194,-0.431253
13549,228961.2,299.149,298.202,-0.359003
13561,229164,299.147,298.208,-0.265304
13573,229366.8,299.147,298.213,-0.172635
13585,229569.6,299.145,298.219,-0.099702
13597,229772.4,299.146,298.222,-0.0139
13609,229975.2,299.146,298.227,0.065896
13621,230178,299.147,298.23,0.142259
13633,230380.8,299.147,298.233,0.193053
13645,230583.6,299.146,298.235,0.247965
13657,230786.4,299.145,298.238,0.28503
13669,230989.2,299.145,298.239,0.320551
13681,231192,299.145,298.241,0.358303
13693,231394.8,299.144,298.241,0.393481
13705,231597.6,299.145,298.242,0.427629
13717,231800.4,299.146,298.243,0.466926
13729,232003.2,299.147,298.242,0.496269
13741,232206,299.146,298.242,0.535566
13753,232408.8,299.147,298.242,0.507423
13765,232611.6,299.147,298.242,0.530761
13777,232814.4,299.147,298.242,0.546377
13789,233017.2,299.146,298.242,0.601976
13801,233220,299.148,298.24,0.622226
13813,233422.8,299.148,298.24,0.639386
13825,233625.6,299.148,298.239,0.648824
13837,233828.4,299.148,298.239,0.6665
13849,234031.2,299.147,298.238,0.674565
13861,234234,299.147,298.237,0.68778
13873,234436.8,299.146,298.236,0.699793
13885,234639.6,299.148,298.234,0.705456
13897,234842.4,299.147,298.233,0.725363
13909,235045.2,299.147,298.232,0.723648
13921,235248,299.146,298.23,0.733087
13933,235450.8,299.146,298.23,0.740295
13945,235653.6,299.1465,298.228,0.760545
13957,235856.4,299.146,298.226,0.764837
13969,236059.2,299.147,298.224,0.762264
13981,236262,299.147,298.224,0.76501
13993,236464.8,299.148,298.222,0.768272
14005,236667.6,299.147,298.22,0.777025
14017,236870.4,299.146,298.218,0.787666
14029,237073.2,299.146,298.216,0.786638
14041,237276,299.148,298.215,0.802084
14053,237478.8,299.148,298.213,0.793161
14065,237681.6,299.148,298.211,0.787843
14077,237884.4,299.148,298.21,0.769139
14089,238087.2,299.149,298.209,0.776862
14101,238290,299.149,298.206,0.777722
14113,238492.8,299.148,298.206,0.779095
14125,238695.6,299.148,298.204,0.772061
14137,238898.4,299.149,298.203,0.767085
14149,239101.2,299.148,298.201,0.757305
14161,239304,299.148,298.2,0.756276
14173,239506.8,299.149,298.199,0.747696
14185,239709.6,299.147,298.198,0.765201
14197,239912.4,299.149,298.197,0.760054
14209,240115.2,299.149,298.196,0.750959
14221,240318,299.149,298.194,0.744096
14233,240520.8,299.15,298.194,0.7338
14245,240723.6,299.149,298.192,0.728309
14257,240926.4,299.148,298.192,0.71664
14269,241129.2,299.149,298.191,0.720931
14281,241332,299.15,298.19,0.718529
14293,241534.8,299.149,298.189,0.713553
14305,241737.6,299.15,298.188,0.715098
14317,241940.4,299.148,298.187,0.709608
14329,242143.2,299.148,298.187,0.715786
14341,242346,299.149,298.186,0.730888
14353,242548.8,299.15,298.185,0.726427
14365,242751.6,299.149,298.184,0.726427
14377,242954.4,299.148,298.184,0.726428
14389,243157.2,299.147,298.183,0.735352
14401,243360,299.148,298.182,0.735524
14413,243562.8,299.147,298.18,0.735526
14425,243765.6,299.149,298.179,0.727804
14437,243968.4,299.149,298.178,0.730894
14449,244171.2,299.148,298.177,0.733984
14461,244374,299.149,298.176,0.743252
14473,244576.8,299.148,298.175,0.741879
14485,244779.6,299.147,298.173,0.754236
14497,244982.4,299.147,298.172,0.75561
14509,245185.2,299.149,298.17,0.769169
14521,245388,299.149,298.17,0.759388
14533,245590.8,299.148,298.168,0.76162
14545,245793.6,299.148,298.167,0.753726
14557,245996.4,299.149,298.166,0.749952
14569,246199.2,299.148,298.165,0.747035
14581,246402,299.149,298.163,0.740515
14593,246604.8,299.148,298.162,0.757505
14605,246807.6,299.149,298.161,0.750298
14617,247010.4,299.15,298.16,0.75682
14629,247213.2,299.151,298.159,0.752359
14641,247416,299.149,298.158,0.748927
14653,247618.8,299.15,298.158,0.734855
14665,247821.6,299.149,298.157,0.731767
14677,248024.4,299.15,298.156,0.713919
14689,248227.2,299.149,298.156,0.718725
14701,248430,299.148,298.155,0.713234
14713,248632.8,299.147,298.154,0.71804
14725,248835.6,299.147,298.153,0.727308
14737,249038.4,299.149,298.152,0.73812
14749,249241.2,299.149,298.151,0.727137
14761,249444,299.149,298.151,0.720445
14773,249646.8,299.149,298.15,0.727653
14785,249849.6,299.149,298.149,0.71341
14797,250052.4,299.148,298.148,0.714269
14809,250255.2,299.148,298.148,0.719932
14821,250458,299.15,298.147,0.721477
14833,250660.8,299.149,298.146,0.715299
14845,250863.6,299.151,298.146,0.711009
14857,251066.4,299.151,298.145,0.70363
14869,251269.2,299.15,298.146,0.70157
14881,251472,299.149,298.145,0.689043
14893,251674.8,299.148,298.144,0.686812
14905,251877.6,299.15,298.143,0.687499
14917,252080.4,299.151,298.144,0.68235
14929,252283.2,299.151,298.144,0.680806
14941,252486,299.152,298.143,0.665017
14953,252688.8,299.153,298.144,0.667076
14954,252705.7,299.153,298.145,0.664158