File: i_data/26C/H2O-NH3_3.7778g.csv
H2O-NH3 New Bottle Conc. Specific Heat - Large HF,,,,
Creation Date : 8/25/2022 10:05:32 AM,,,,
User : admin,,,,
,,,,
HeatFlow :,,,,
 Initial Mass : 3777.8 mg,,,,
 Molar Mass : 17 g/mol,,,,
,,,,
Index,Time(s),Furnace Temperature(K),Sample Temperature(K),HeatFlow(mW)
1,0,298.938,298.971,145.31
13,202.8,298.937,298.973,71.6401
25,405.6,298.936,298.972,34.7813
37,608.4,298.93,298.971,16.1791
49,811.2,298.913,298.968,6.784248
61,1014,298.87,298.964,2.077827
73,1216.8,298.783,298.955,-0.204749
85,1419.6,298.627,298.937,-1.063721
97,1622.4,298.382,298.904,-1.0346
109,1825.2,298.013,298.8501,-0.435437
121,2028,297.476,298.763,0.710067
133,2230.8,296.736,298.633,2.499442
145,2433.6,295.7769,298.443,5.118361
157,2636.4,294.611,298.182,8.749755
169,2839.2,293.285,297.838,13.4449
181,3042,291.852,297.411,19.0648
193,3244.8,290.351,296.898,25.3743
205,3447.6,288.801,296.302,32.1214
217,3650.4,287.218,295.625,39.05965
229,3853.2,285.625,294.875,45.9223
241,4056,284.032,294.059,52.5384
253,4258.8,282.448,293.183,58.7352
265,4461.6,280.878,292.26,64.2813
277,4664.4,279.327,291.284,69.2965
289,4867.2,277.797,290.26,74.05099
301,5070,276.291,289.194,78.4443
313,5272.8,274.814,288.094,82.3642
325,5475.6,273.364,286.966,85.75909
337,5678.4,271.94,285.816,88.6422
349,5881.2,270.538,284.646,91.0495
361,6084,269.161,283.46,93.0082
373,6286.8,267.805,282.262,94.5928
385,6489.6,266.474,281.056,95.8576
397,6692.4,265.161,279.842,96.8364
409,6895.2,263.865,278.624,97.5469
421,7098,262.588,277.4027,98.0339
433,7300.8,261.326,276.18,98.2937
445,7503.6,260.077,274.958,98.4253
457,7706.4,258.842,273.737,98.4641
469,7909.2,257.621,272.518,98.2648
481,8112,256.41,271.302,98.0692
493,8314.8,255.215,270.09,97.7821
505,8517.6,254.029,268.884,97.2304
517,8720.4,252.854,267.681,96.71351
529,8923.2,251.69,266.483,96.2225
541,9126,250.54,265.293,95.8664
553,9328.8,249.406,264.106,95.078
565,9531.6,248.29,262.93,94.4271
577,9734.4,247.191,261.761,93.6919
589,9937.2,246.11,260.6,92.762
601,10140,245.038,259.45,91.9607
613,10342.8,243.968,258.307,91.0361
625,10545.6,242.901,257.171,90.0387
637,10748.4,241.846,256.046,89.1832
649,10951.2,240.81,254.928,88.55163
661,11154,239.793,253.82,87.6791
673,11356.8,238.785,252.722,86.7189
685,11559.6,237.783,251.633,85.72
697,11762.4,236.792,250.553,84.6576
709,11965.2,235.818,249.484,83.5238
721,12168,234.858,248.424,82.2399
733,12370.8,233.907,247.375,81.3717
745,12573.6,232.952,246.336,80.3099
757,12776.4,231.991,245.304,79.2177
769,12979.2,231.034,244.28,78.3512
781,13182,230.09,243.264,77.4615
793,13384.8,229.1635,242.255,76.2514
805,13587.6,228.253,241.255,75.9
817,13790.4,227.351,240.265,74.97
829,13993.2,226.447,239.283,74.23268
841,14196,225.54,238.309,74.0172
853,14398.8,224.634,237.34,72.7044
865,14601.6,223.736,236.381,71.4692
877,14804.4,222.848,235.426,71.0919
889,15007.2,221.969,234.48,70.3142
901,15210,221.099,233.54,69.4756
913,15412.8,220.24,232.607,68.84015
925,15615.6,219.391,231.682,68.2566
937,15818.4,218.549,230.766,67.5181
949,16021.2,217.72,229.856,67.1688
961,16224,216.901,228.954,66.0735
973,16426.8,216.081,228.061,65.2737
985,16629.6,215.264,227.175,64.3323
997,16832.4,214.451,226.294,63.44251
1009,17035.2,213.645,225.42,62.9435
1021,17238,212.841,224.554,62.4502
1033,17440.8,212.041,223.693,61.483
1045,17643.6,211.247,222.839,60.686
1057,17846.4,210.4625,221.99,59.2576
1069,18049.2,209.685,221.148,59.0537
1081,18252,208.918,220.312,58.6446
1093,18454.8,208.156,219.483,58.3146
1105,18657.6,207.39,218.66,57.97442
1117,18860.4,206.622,217.842,57.0741
1129,19063.2,205.859,217.03,55.8176
1141,19266,205.109,216.223,55.9734
1153,19468.8,204.372,215.422,54.7902
1165,19671.6,203.641,214.627,54.2941
1177,19874.4,202.911,213.838,53.66465
1189,20077.2,202.185,213.054,53.0007
1201,20280,201.464,212.275,52.4504
1213,20482.8,200.742,211.502,52.6954
1225,20685.6,200.019,210.733,51.2956
1237,20888.4,199.303,209.968,50.83098
1249,21091.2,198.601,209.21,50.2862
1261,21294,197.904,208.457,48.8681
1273,21496.8,197.208,207.709,48.4687
1285,21699.6,196.513,206.966,48.6981
1297,21902.4,195.828,206.226,47.7715
1309,22105.2,195.157,205.493,47.5366
1321,22308,194.489,204.766,46.4276
1333,22510.8,193.818,204.044,46.187
1345,22713.6,193.148,203.326,45.8732
1357,22916.4,192.486,202.612,45.6962
1369,23119.2,191.836,201.904,45.2609
1381,23322,191.196,201.201,44.7203
1393,23524.8,190.565,200.503,44.1778
1405,23727.6,189.943,199.812,43.254
1417,23930.4,189.319,199.127,42.7882
1429,24133.2,188.686,198.445,41.6428
1441,24336,188.049,197.768,41.2393
1453,24538.8,187.413,197.095,40.6909
1465,24741.6,186.789,196.426,40.7012
1477,24944.4,186.179,195.761,39.5248
1489,25147.2,185.572,195.101,39.6275
1501,25350,184.966,194.445,39.041
1513,25552.8,184.367,193.793,38.47306
1525,25755.6,183.786,193.147,38.8008
1537,25958.4,183.215,192.507,38.3711
1549,26161.2,182.647,191.873,37.9181
1561,26364,182.082,191.243,37.453
1573,26566.8,181.52,190.6174,37.1385
1585,26769.6,180.952,189.999,36.8869
1597,26972.4,180.373,189.383,36.4069
1609,27175.2,179.791,188.771,35.9683
1621,27378,179.216,188.16,35.3989
1633,27580.8,178.656,187.554,35.0409
1645,27783.6,178.116,186.953,34.5973
1657,27986.4,177.584,186.357,33.8625
1669,28189.2,177.046,185.766,33.5218
1681,28392,176.502,185.177,33.36418
1693,28594.8,175.959,184.593,32.734
1705,28797.6,175.423,184.013,32.8926
1717,29000.4,174.895,183.436,32.3843
1729,29203.2,174.367,182.863,32.1912
1741,29406,173.844,182.295,32.11154
1753,29608.8,173.332,181.73,32.1608
1765,29811.6,172.825,181.169,31.4372
1777,30014.4,172.307,180.613,31.1128
1789,30217.2,171.777,180.058,30.8019
1801,30420,171.246,179.507,30.6631
1813,30622.8,170.721,178.957,30.4247
1825,30825.6,170.206,178.409,30.5458
1837,31028.4,169.709,177.865,30.499
1849,31231.2,169.228,177.326,30.7588
1861,31434,168.754,176.79,31.582
1873,31636.8,168.267,176.26,32.5734
1885,31839.6,167.773,175.732,34.192
1897,32042.4,167.2796,175.207,36.1724
1909,32245.2,166.793,174.685,38.43699
1921,32448,166.316,174.167,41.1937
1933,32650.8,165.849,173.652,43.6433
1945,32853.6,165.385,173.14,45.3959
1957,33056.4,164.919,172.633,46.3846
1969,33259.2,164.456,172.128,47.3739
1981,33462,164.003,171.627,47.5899
1993,33664.8,163.565,171.131,47.651
2005,33867.6,163.13,170.639,47.7474
2017,34070.4,162.681,170.151,47.4438
2029,34273.2,162.222,169.664,46.8005
2041,34476,161.762,169.18,45.733
2053,34678.8,161.308,168.699,45.3033
2065,34881.6,160.866,168.219,44.1586
2077,35084.4,160.433,167.743,43.0713
2089,35287.2,159.992,167.27,41.0491
2101,35490,159.54,166.798,39.4115
2113,35692.8,159.09,166.328,37.7362
2125,35895.6,158.649,165.861,36.1128
2137,36098.4,158.224,165.396,34.723
2149,36301.2,157.811,164.934,33.1792
2161,36504,157.407,164.476,32.1374
2173,36706.8,157.017,164.023,30.6311
2185,36909.6,156.626,163.574,29.872
2197,37112.4,156.22,163.127,28.8511
2209,37315.2,155.795,162.684,27.7233
2221,37518,155.363,162.242,26.67499
2233,37720.8,154.935,161.8,26.0362
2245,37923.6,154.506,161.36,25.6445
2257,38126.4,154.063,160.921,25.1819
2269,38329.2,153.592,160.48,24.6704
2281,38532,153.094,160.036,24.5026
2293,38734.8,152.572,159.589,24.376
2305,38937.6,152.024,159.137,24.0734
2317,39140.4,151.442,158.677,24.262
2329,39343.2,150.826,158.209,24.4521
2341,39546,150.152,157.729,24.965
2353,39748.8,149.393,157.233,25.3179
2365,39951.6,148.554,156.719,25.941
2377,40154.4,147.645,156.181,26.6238
2389,40357.2,146.731,155.619,27.5181
2401,40560,145.861,155.037,28.5178
2413,40762.8,145.06,154.441,29.4004
2425,40965.6,144.335,153.834,29.989
2437,41168.4,143.677,153.224,30.3281
2449,41371.2,143.076,152.613,30.54915
2461,41574,142.505,152.004,30.547
2473,41776.8,141.9233,151.397,30.5338
2485,41979.6,141.343,150.792,30.36489
2497,42182.4,140.783,150.192,30.1061
2509,42385.2,140.24,149.594,29.8088
2521,42588,139.699,149,29.538
2533,42790.8,139.164,148.41,29.462
2545,42993.6,138.629,147.824,28.91132
2557,43196.4,138.107,147.241,28.5034
2569,43399.2,137.578,146.664,28.17148
2581,43602,137.046,146.089,27.9283
2593,43804.8,136.524,145.518,27.6452
2605,44007.6,136.017,144.95,27.6689
2617,44210.4,135.52,144.386,27.2879
2629,44413.2,135.037,143.829,26.8166
2641,44616,134.5604,143.276,26.1796
2653,44818.8,134.097,142.729,25.9243
2665,45021.6,133.641,142.188,25.51474
2677,45224.4,133.19,141.651,25.3087
2689,45427.2,132.729,141.122,24.9378
2701,45630,132.28,140.596,24.6019
2713,45832.8,131.819,140.075,24.1756
2725,46035.6,131.344,139.557,23.8604
2737,46238.4,130.879,139.043,23.6322
2749,46441.2,130.446,138.533,23.5776
2761,46644,130.057,138.029,23.30232
2773,46846.8,129.706,137.534,22.8065
2785,47049.6,129.36,137.049,22.3682
2797,47252.4,129.001,136.572,21.9707
2809,47455.2,128.632,136.102,21.7215
2821,47658,128.216,135.637,21.3421
2833,47860.8,127.762,135.172,20.7717
2845,48063.6,127.323,134.71,20.6512
2857,48266.4,126.92,134.251,20.3348
2869,48469.2,126.562,133.797,20.051
2881,48672,126.2367,133.349,19.8618
2893,48874.8,125.893,132.909,19.5845
2905,49077.6,125.503,132.473,19.3045
2917,49280.4,125.096,132.04,19.0979
2929,49483.2,124.698,131.609,18.8644
2941,49686,124.334,131.181,18.6917
2953,49888.8,124.01,130.759,18.5469
2965,50091.6,123.719,130.344,18.2363
2977,50294.4,123.44,129.936,17.9377
2989,50497.2,123.165,129.537,17.7286
3001,50700,122.908,129.146,17.3298
3013,50902.8,122.666,128.765,16.7627
3025,51105.6,122.408,128.393,16.4082
3037,51308.4,122.133,128.025,16.0829
3049,51511.2,121.858,127.664,15.8323
3061,51714,121.603,127.309,15.441
3073,51916.8,121.3729,126.961,15.1432
3085,52119.6,121.159,126.621,14.8091
3097,52322.4,120.942,126.288,14.4163
3109,52525.2,120.729,125.963,14.1318
3121,52728,120.516,125.645,13.875
3133,52930.8,120.276,125.332,13.4428
3145,53133.6,120.009,125.0232,13.07
3157,53336.4,119.744,124.717,12.9173
3169,53539.2,119.498,124.415,12.6167
3181,53742,119.285,124.116,12.52901
3193,53944.8,119.093,123.823,12.318
3205,54147.6,118.894,123.537,12.0991
3217,54350.4,118.676,123.255,11.7767
3229,54553.2,118.457,122.975,11.5964
3241,54756,118.254,122.702,11.2776
3253,54958.8,118.0745,122.434,11.0131
3265,55161.6,117.913,122.172,10.8697
3277,55364.4,117.758,121.916,10.6031
3289,55567.2,117.602,121.667,10.3387
3301,55770,117.451,121.423,10.0489
3313,55972.8,117.307,121.185,9.750128
3325,56175.6,117.172,120.954,9.415424
3337,56378.4,117.027,120.727,9.169256
3349,56581.2,116.861,120.506,8.876722
3361,56784,116.683,120.287,8.637064
3373,56986.8,116.5091,120.07,8.438087
3385,57189.6,116.348,119.857,8.28283
3397,57392.4,116.204,119.648,8.137096
3409,57595.2,116.065,119.443,7.843103
3421,57798,115.918,119.242,7.67941
3433,58000.8,115.756,119.044,7.546943
3445,58203.6,115.583,118.847,7.354136
3457,58406.4,115.406,118.652,7.176251
3469,58609.2,115.223,118.457,7.057741
3481,58812,115.037,118.263,6.925947
3493,59014.8,114.849,118.07,6.850538
3505,59217.6,114.658,117.877,6.779343
3517,59420.4,114.47,117.684,6.73183
3529,59623.2,114.295,117.492,6.626048
3541,59826,114.141,117.301,6.570743
3553,60028.8,114.005,117.114,6.425834
3565,60231.6,113.879,116.929,6.262065
3577,60434.4,113.749,116.749,6.110187
3589,60637.2,113.607,116.571,6.019605
3601,60840,113.459,116.3953,5.845792
3613,61042.8,113.315,116.222,5.74946
3625,61245.6,113.185,116.05,5.625112
3637,61448.4,113.071,115.881,5.440417
3649,61651.2,112.956,115.716,5.32356
3661,61854,112.825,115.553,5.202763
3673,62056.8,112.677,115.392,5.079536
3685,62259.6,112.525,115.231,5.005493
3697,62462.4,112.383,115.071,4.978337
3709,62665.2,112.258,114.912,4.877511
3721,62868,112.153,114.757,5.973454
3733,63070.8,112.055,114.605,5.26203
3745,63273.6,111.952,114.456,4.864719
3757,63476.4,111.849,114.309,4.619106
3769,63679.2,111.753,114.165,4.456215
3781,63882,111.667,114.025,4.276869
3793,64084.8,111.587,113.889,4.165749
3805,64287.6,111.501,113.756,4.034602
3817,64490.4,111.405,113.625,3.905307
3829,64693.2,111.298,113.496,3.814242
3841,64896,111.177,113.368,3.744222
3853,65098.8,111.048,113.241,3.688366
3865,65301.6,110.919,113.113,3.61964
3877,65504.4,110.79,112.984,3.585189
3889,65707.2,110.653,112.856,3.575367
3901,65910,110.51,112.727,3.550288
3913,66112.8,110.374,112.598,3.530677
3925,66315.6,110.255,112.468,3.555028
3937,66518.4,110.157,112.339,3.500822
3949,66721.2,110.074,112.214,3.424085
3961,66924,109.995,112.092,3.382366
3973,67126.8,109.905,111.97,3.318485
3985,67329.6,109.8,111.851,3.229268
3997,67532.4,109.69,111.732,3.176452
4009,67735.2,109.583,111.614,3.12229
4021,67938,109.49,111.496,3.08005
4033,68140.8,109.402,111.381,3.033337
4045,68343.6,109.307,111.267,2.961273
4057,68546.4,109.208,111.154,2.904184
4069,68749.2,109.107,111.042,2.869198
4081,68952,109,110.931,2.848666
4093,69154.8,108.889,110.82,2.808007
4105,69357.6,108.783,110.708,2.7908
4117,69560.4,108.689,110.598,2.770454
4129,69763.2,108.61,110.488,2.746019
4141,69966,108.525,110.382,2.706606
4153,70168.8,108.424,110.275,2.656576
4165,70371.6,108.305,110.168,2.618594
4177,70574.4,108.181,110.061,2.620983
4189,70777.2,108.064,109.952,2.625893
4201,70980,107.966,109.843,2.621769
4213,71182.8,107.89,109.736,2.605146
4225,71385.6,107.824,109.631,2.546664
4237,71588.4,107.755,109.529,2.50396
4249,71791.2,107.685,109.429,2.457417
4261,71994,107.618,109.33,2.38858
4273,72196.8,107.555,109.233,2.336172
4285,72399.6,107.486,109.139,2.273961
4297,72602.4,107.409,109.045,2.216977
4309,72805.2,107.332,108.952,2.163649
4321,73008,107.261,108.862,2.125595
4333,73210.8,107.198,108.772,2.091554
4345,73413.6,107.128,108.683,2.041432
4357,73616.4,107.042,108.596,1.995934
4369,73819.2,106.945,108.507,1.980595
4381,74022,106.847,108.419,1.971847
4393,74224.8,106.759,108.329,1.95774
4405,74427.6,106.684,108.242,1.958093
4417,74630.4,106.62,108.154,1.945507
4429,74833.2,106.553,108.068,1.921211
4441,75036,106.477,107.983,1.88266
4453,75238.8,106.386,107.898,1.852274
4465,75441.6,106.279,107.813,1.86075
4477,75644.4,106.165,107.725,1.875276
4489,75847.2,106.056,107.636,1.89713
4501,76050,105.96,107.546,1.933283
4513,76252.8,105.8832,107.457,1.942205
4525,76455.6,105.824,107.368,1.929874
4537,76658.4,105.765,107.283,1.902567
4549,76861.2,105.696,107.198,1.852334
4561,77064,105.622,107.114,1.827468
4573,77266.8,105.55,107.03,1.790789
4585,77469.6,105.49,106.948,1.752767
4597,77672.4,105.443,106.867,1.718186
4609,77875.2,105.405,106.789,1.662174
4621,78078,105.357,106.713,1.609901
4633,78280.8,105.291,106.638,1.554684
4645,78483.6,105.212,106.563,1.532909
4657,78686.4,105.13,106.488,1.519749
4669,78889.2,105.058,106.413,1.508808
4681,79092,104.999,106.338,1.496567
4693,79294.8,104.957,106.264,1.487823
4705,79497.6,104.922,106.194,1.443179
4717,79700.4,104.884,106.125,1.385654
4729,79903.2,104.827,106.057,1.334787
4741,80106,104.747,105.99,1.308547
4753,80308.8,104.653,105.921,1.322083
4765,80511.6,104.553,105.85,1.331161
4777,80714.4,104.46,105.777,1.368531
4789,80917.2,104.386,105.704,1.397271
4801,81120,104.333,105.632,1.403845
4813,81322.8,104.3,105.561,1.388532
4825,81525.6,104.285,105.493,1.332618
4837,81728.4,104.275,105.429,1.264374
4849,81931.2,104.261,105.368,1.19667
4861,82134,104.246,105.309,1.116305
4873,82336.8,104.224,105.254,1.030689
4885,82539.6,104.198,105.2,0.969499
4897,82742.4,104.164,105.147,0.910191
4909,82945.2,104.119,105.096,0.890216
4921,83148,104.067,105.045,0.854721
4933,83350.8,104.02,104.993,0.850221
4945,83553.6,103.989,104.942,0.824374
4957,83756.4,103.967,104.893,0.79591
4969,83959.2,103.938,104.846,0.760942
4981,84162,103.891,104.799,0.745364
4993,84364.8,103.831,104.751,0.739172
5005,84567.6,103.771,104.702,0.742371
5017,84770.4,103.717,104.655,0.75302
5029,84973.2,103.6771,104.606,0.746829
5041,85176,103.653,104.558,0.732194
5053,85378.8,103.647,104.512,0.70294
5065,85581.6,103.643,104.469,0.653857
5077,85784.4,103.627,104.429,0.618037
5089,85987.2,103.6,104.388,0.57375
5101,86190,103.57,104.349,0.539177
5113,86392.8,103.543,104.31,0.513351
5125,86595.6,103.526,104.273,0.479051
5137,86798.4,103.522,104.237,0.44278
5149,87001.2,103.517,104.203,0.404852
5161,87204,103.5,104.171,0.372104
5173,87406.8,103.474,104.138,0.343569
5185,87609.6,103.448,104.106,0.323154
5197,87812.4,103.427,104.076,0.300773
5209,88015.2,103.417,104.046,0.273821
5221,88218,103.42,104.017,0.23513
5233,88420.8,103.414,103.99,0.206515
5245,88623.6,103.394,103.964,0.183426
5257,88826.4,103.365,103.938,0.162609
5269,89029.2,103.335,103.912,0.153842
5281,89232,103.31,103.886,0.15094
5293,89434.8,103.293,103.86,0.148037
5305,89637.6,103.288,103.834,0.124259
5317,89840.4,103.294,103.812,0.098186
5329,90043.2,103.297,103.79,0.077649
5341,90246,103.287,103.769,0.035241
5353,90448.8,103.266,103.749,0.00359
5365,90651.6,103.24,103.728,0.001632
5377,90854.4,103.223,103.708,-0.007509
5389,91057.2,103.23,103.688,-0.003918
5401,91260,103.266,103.671,-0.040821
5413,91462.8,103.316,103.658,-0.105819
5425,91665.6,103.367,103.648,-0.186177
5437,91868.4,103.415,103.643,-0.284177
5449,92071.2,103.446,103.639,-0.372381
5461,92274,103.453,103.638,-0.424323
5473,92476.8,103.44,103.635,-0.451444
5485,92679.6,103.416,103.632,-0.459622
5497,92882.4,103.39,103.628,-0.449185
5509,93085.2,103.366,103.622,-0.431889
5521,93288,103.357,103.616,-0.400546
5533,93490.8,103.373,103.61,-0.387171
5545,93693.6,103.403,103.606,-0.40842
5557,93896.4,103.438,103.605,-0.450247
5569,94099.2,103.465,103.605,-0.508734
5581,94302,103.481,103.606,-0.528005
5593,94504.8,103.492,103.609,-0.572103
5605,94707.6,103.51,103.612,-0.592674
5617,94910.4,103.539,103.616,-0.629243
5629,95113.2,103.572,103.622,-0.651754
5641,95316,103.6,103.63,-0.696797
5653,95518.8,103.617,103.638,-0.734644
5665,95721.6,103.623,103.646,-0.74766
5677,95924.4,103.631,103.655,-0.759367
5689,96127.2,103.65,103.663,-0.770744
5701,96330,103.671,103.673,-0.773951
5713,96532.8,103.689,103.682,-0.789566
5725,96735.6,103.704,103.693,-0.810723
5737,96938.4,103.724,103.704,-0.819464
5749,97141.2,103.753,103.715,-0.827552
5761,97344,103.785,103.728,-0.852601
5773,97546.8,103.817,103.742,-0.876655
5785,97749.6,103.845,103.757,-0.9056
5797,97952.4,103.87,103.773,-0.931262
5809,98155.2,103.897,103.789,-0.95822
5821,98358,103.925,103.805,-0.970489
5833,98560.8,103.952,103.823,-0.9834
5845,98763.6,103.98,103.841,-1.001849
5857,98966.4,104.009,103.86,-1.023544
5869,99169.2,104.039,103.879,-1.032838
5881,99372,104.068,103.899,-1.05549
5893,99574.8,104.095,103.92,-1.073573
5905,99777.6,104.127,103.941,-1.085124
5917,99980.4,104.159,103.962,-1.10774
5929,100183.2,104.191,103.985,-1.124156
5941,100386,104.218,104.007,-1.133073
5953,100588.8,104.245,104.03,-1.152405
5965,100791.6,104.276,104.053,-1.157399
5977,100994.4,104.308,104.077,-1.163688
5989,101197.2,104.337,104.102,-1.184619
6001,101400,104.366,104.126,-1.186987
6013,101602.8,104.391,104.151,-1.190336
6025,101805.6,104.417,104.175,-1.19498
6037,102008.4,104.442,104.201,-1.203847
6049,102211.2,104.468,104.225,-1.20036
6061,102414,104.492,104.25,-1.214105
6073,102616.8,104.516,104.274,-1.205741
6085,102819.6,104.539,104.299,-1.206481
6097,103022.4,104.561,104.324,-1.21144
6109,103225.2,104.664,104.349,-1.21607
6121,103428,105.098,104.385,-1.336836
6133,103630.8,105.661,104.448,-1.69805
6145,103833.6,106.144,104.538,-2.23001
6157,104036.4,106.536,104.65,-2.81
6169,104239.2,106.877,104.776,-3.343247
6181,104442,107.203,104.918,-3.790595
6193,104644.8,107.53,105.07,-4.158414
6205,104847.6,107.864,105.232,-4.495981
6217,105050.4,108.205,105.406,-4.80713
6229,105253.2,108.549,105.59,-5.084554
6241,105456,108.889,105.783,-5.368826
6253,105658.8,109.227,105.986,-5.63454
6265,105861.6,109.565,106.1957,-5.88563
6277,106064.4,109.904,106.414,-6.116323
6289,106267.2,110.244,106.639,-6.346926
6301,106470,110.582,106.872,-6.541612
6313,106672.8,110.92,107.11,-6.749016
6325,106875.6,111.259,107.354,-6.932817
6337,107078.4,111.598,107.603,-7.114425
6349,107281.2,111.936,107.859,-7.285222
6361,107484,112.273,108.119,-7.450997
6373,107686.8,112.612,108.384,-7.607694
6385,107889.6,112.953,108.653,-7.762268
6397,108092.4,113.292,108.927,-7.900951
6409,108295.2,113.63,109.204,-8.039487
6421,108498,113.968,109.484,-8.178237
6433,108700.8,114.306,109.768,-8.300605
6445,108903.6,114.643,110.055,-8.432554
6457,109106.4,114.981,110.343,-8.550584
6469,109309.2,115.318,110.636,-8.659777
6481,109512,115.654,110.931,-8.77495
6493,109714.8,115.995,111.229,-8.878302
6505,109917.6,116.336,111.529,-8.986964
6517,110120.4,116.674,111.831,-9.099642
6529,110323.2,117.014,112.135,-9.21665
6541,110526,117.353,112.44,-9.325103
6553,110728.8,117.69,112.748,-9.430564
6565,110931.6,118.027,113.057,-9.535176
6577,111134.4,118.365,113.368,-9.649878
6589,111337.2,118.702,113.68,-9.744639
6601,111540,119.039,113.994,-9.864921
6613,111742.8,119.378,114.308,-9.969872
6625,111945.6,119.717,114.624,-10.0908
6637,112148.4,120.052,114.941,-10.222
6649,112351.2,120.384,115.26,-10.3469
6661,112554,120.718,115.577,-10.4719
6673,112756.8,121.058,115.896,-10.6164
6685,112959.6,121.406,116.215,-10.7786
6697,113162.4,121.751,116.536,-10.9652
6709,113365.2,122.092,116.858,-11.1727
6721,113568,122.429,117.182,-11.40552
6733,113770.8,122.764,117.507,-11.6764
6745,113973.6,123.097,117.832,-11.9586
6757,114176.4,123.429,118.156,-12.2671
6769,114379.2,123.765,118.481,-12.6401
6781,114582,124.108,118.806,-13.0325
6793,114784.8,124.451,119.132,-13.5053
6805,114987.6,124.79,119.46,-14.0339
6817,115190.4,125.129,119.788,-14.612
6829,115393.2,125.466,120.115,-15.2384
6841,115596,125.801,120.444,-15.8734
6853,115798.8,126.138,120.773,-16.491
6865,116001.6,126.479,121.102,-17.0138
6877,116204.4,126.818,121.431,-17.4131
6889,116407.2,127.154,121.761,-17.5666
6901,116610,127.488,122.091,-17.4859
6913,116812.8,127.822,122.42,-17.1679
6925,117015.6,128.163,122.75,-16.7139
6937,117218.4,128.508,123.081,-16.26449
6949,117421.2,128.848,123.412,-15.9056
6961,117624,129.185,123.743,-15.6837
6973,117826.8,129.522,124.075,-15.5506
6985,118029.6,129.854,124.408,-15.4596
6997,118232.4,130.189,124.738,-15.4089
7009,118435.2,130.529,125.069,-15.38171
7021,118638,130.871,125.401,-15.3681
7033,118840.8,131.213,125.733,-15.35906
7045,119043.6,131.552,126.066,-15.3819
7057,119246.4,131.887,126.398,-15.3941
7069,119449.2,132.217,126.73,-15.393
7081,119652,132.549,127.062,-15.3967
7093,119854.8,132.888,127.394,-15.3908
7105,120057.6,133.231,127.725,-15.3816
7117,120260.4,133.577,128.057,-15.3874
7129,120463.2,133.925,128.389,-15.4194
7141,120666,134.265,128.724,-15.4489
7153,120868.8,134.6,129.057,-15.4861
7165,121071.6,134.926,129.392,-15.5196
7177,121274.4,135.252,129.725,-15.5203
7189,121477.2,135.586,130.057,-15.5002
7201,121680,135.928,130.389,-15.4819
7213,121882.8,136.273,130.72,-15.4773
7225,122085.6,136.618,131.052,-15.4928
7237,122288.4,136.961,131.385,-15.51305
7249,122491.2,137.305,131.719,-15.5508
7261,122694,137.64,132.053,-15.5766
7273,122896.8,137.968,132.387,-15.6079
7285,123099.6,138.301,132.721,-15.6159
7297,123302.4,138.642,133.054,-15.6164
7309,123505.2,138.984,133.387,-15.624
7321,123708,139.327,133.721,-15.6339
7333,123910.8,139.669,134.056,-15.652
7345,124113.6,140.002,134.39,-15.68962
7357,124316.4,140.331,134.725,-15.705
7369,124519.2,140.664,135.057,-15.7063
7381,124722,141.0026,135.391,-15.6909
7393,124924.8,141.346,135.725,-15.6938
7405,125127.6,141.69,136.058,-15.7115
7417,125330.4,142.032,136.393,-15.7325
7429,125533.2,142.371,136.728,-15.7498
7441,125736,142.712,137.063,-15.77261
7453,125938.8,143.051,137.399,-15.8016
7465,126141.6,143.385,137.735,-15.82296
7477,126344.4,143.711,138.07,-15.8217
7489,126547.2,144.041,138.405,-15.8017
7501,126750,144.381,138.739,-15.7593
7513,126952.8,144.726,139.072,-15.7148
7525,127155.6,145.07,139.407,-15.6566
7537,127358.4,145.411,139.743,-15.591
7549,127561.2,145.748,140.077,-15.4949
7561,127764,146.082,140.413,-15.328
7573,127966.8,146.419,140.748,-15.0592
7585,128169.6,146.761,141.084,-14.6426
7597,128372.4,147.103,141.42,-14.0287
7609,128575.2,147.4392,141.757,-13.1029
7621,128778,147.771,142.093,-11.6956
7633,128980.8,148.106,142.43,-9.587389
7645,129183.6,148.446,142.765,-6.414132
7657,129386.4,148.789,143.101,-1.707527
7669,129589.2,149.135,143.439,5.260599
7681,129792,149.477,143.778,15.5313
7693,129994.8,149.812,144.117,30.5828
7705,130197.6,150.146,144.458,52.3625
7717,130400.4,150.477,144.799,82.8989
7729,130603.2,150.806,145.142,122.358
7741,130806,151.141,145.485,163.412
7753,131008.8,151.482,145.829,187.313
7765,131211.6,151.828,146.172,179.259
7777,131414.4,152.17,146.514,147.003
7789,131617.2,152.511,146.855,108.325
7801,131820,152.847,147.193,74.3552
7813,132022.8,153.181,147.531,48.40232
7825,132225.6,153.521,147.868,29.9035
7837,132428.4,153.866,148.205,17.2013
7849,132631.2,154.2,148.542,8.601254
7861,132834,154.531,148.878,2.783183
7873,133036.8,154.865,149.214,-1.193336
7885,133239.6,155.199,149.549,-3.938512
7897,133442.4,155.536,149.883,-5.83581
7909,133645.2,155.876,150.218,-7.167218
7921,133848,156.218,150.553,-8.097698
7933,134050.8,156.553,150.888,-8.743522
7945,134253.6,156.891,151.222,-9.177144
7957,134456.4,157.233,151.558,-9.479325
7969,134659.2,157.577,151.893,-9.699466
7981,134862,157.919,152.229,-9.875591
7993,135064.8,158.258,152.565,-9.979278
8005,135267.6,158.592,152.902,-10.09843
8017,135470.4,158.929,153.238,-10.211
8029,135673.2,159.268,153.575,-10.291
8041,135876,159.61,153.912,-10.3783
8053,136078.8,159.95,154.251,-10.4714
8065,136281.6,160.283,154.589,-10.555
8077,136484.4,160.619,154.927,-10.6546
8089,136687.2,160.957,155.264,-10.7328
8101,136890,161.299,155.603,-10.7635
8113,137092.8,161.635,155.941,-10.8212
8125,137295.6,161.968,156.278,-10.8719
8137,137498.4,162.305,156.617,-10.9188
8149,137701.2,162.647,156.954,-10.9569
8161,137904,162.989,157.293,-10.9865
8173,138106.8,163.325,157.632,-11.0531
8185,138309.6,163.658,157.971,-11.066
8197,138512.4,163.995,158.308,-11.0945
8209,138715.2,164.336,158.646,-11.1392
8221,138918,164.677,158.986,-11.1949
8233,139120.8,165.012,159.324,-11.2376
8245,139323.6,165.346,159.662,-11.2787
8257,139526.4,165.683,160,-11.31726
8269,139729.2,166.026,160.339,-11.3855
8281,139932,166.369,160.678,-11.4354
8293,140134.8,166.705,161.017,-11.4619
8305,140337.6,167.036,161.356,-11.5318
8317,140540.4,167.373,161.694,-11.6182
8329,140743.2,167.713,162.031,-11.7275
8341,140946,168.052,162.37,-11.8094
8353,141148.8,168.387,162.708,-11.8935
8365,141351.6,168.723,163.045,-11.9566
8377,141554.4,169.063,163.383,-11.9916
8389,141757.2,169.405,163.721,-12.06825
8401,141960,169.748,164.06,-12.1127
8413,142162.8,170.084,164.399,-11.0416
8425,142365.6,170.416,164.737,-11.4305
8437,142568.4,170.752,165.075,-11.4408
8449,142771.2,171.092,165.412,-11.5083
8461,142974,171.434,165.75,-11.55322
8473,143176.8,171.776,166.089,-11.6019
8485,143379.6,172.113,166.428,-11.6169
8497,143582.4,172.446,166.767,-11.6771
8509,143785.2,172.782,167.105,-11.7695
8521,143988,173.123,167.443,-11.8785
8533,144190.8,173.465,167.782,-11.8444
8545,144393.6,173.805,168.121,-11.8748
8557,144596.4,174.14,168.46,-11.9379
8569,144799.2,174.472,168.798,-11.99835
8581,145002,174.81,169.137,-11.9963
8593,145204.8,175.152,169.476,-12.0322
8605,145407.6,175.493,169.814,-12.1066
8617,145610.4,175.833,170.154,-12.2093
8629,145813.2,176.167,170.493,-12.3582
8641,146016,176.502,170.832,-12.3828
8653,146218.8,176.839,171.171,-12.5471
8665,146421.6,177.1808,171.509,-12.5233
8677,146624.4,177.519,171.848,-12.4592
8689,146827.2,177.855,172.188,-12.5004
8701,147030,178.192,172.527,-12.6171
8713,147232.8,178.531,172.866,-12.657
8725,147435.6,178.867,173.205,-12.6925
8737,147638.4,179.204,173.543,-12.7864
8749,147841.2,179.543,173.882,-12.9296
8761,148044,179.884,174.221,-13.1293
8773,148246.8,180.228,174.56,-13.5383
8785,148449.6,180.567,174.899,-14.3437
8797,148652.4,180.903,175.239,-15.8202
8809,148855.2,181.235,175.578,-19.2073
8821,149058,181.573,175.918,-28.3356
8833,149260.8,181.913,176.256,-51.3501
8845,149463.6,182.253,176.593,-84.3238
8857,149666.4,182.592,176.93,-122.206
8869,149869.2,182.925,177.264,-153.624
8881,150072,183.26,177.599,-171.385
8893,150274.8,183.6006,177.931,-186.671
8905,150477.6,183.941,178.265,-210.745
8917,150680.4,184.279,178.598,-227.659
8929,150883.2,184.615,178.932,-235.876
8941,151086,184.954,179.266,-234.793
8953,151288.8,185.293,179.6,-224.608
8965,151491.6,185.628,179.935,-204.644
8977,151694.4,185.963,180.272,-170.96
8989,151897.2,186.303,180.61,-113.433
9001,152100,186.646,180.951,-66.098
9013,152302.8,186.986,181.293,-42.94878
9025,152505.6,187.321,181.636,-31.9311
9037,152708.4,187.656,181.979,-26.67
9049,152911.2,187.996,182.321,-24.2205
9061,153114,188.336,182.664,-23.0096
9073,153316.8,188.676,183.005,-22.5411
9085,153519.6,189.012,183.348,-22.3348
9097,153722.4,189.346,183.69,-22.3046
9109,153925.2,189.685,184.031,-22.15876
9121,154128,190.026,184.373,-22.1114
9133,154330.8,190.366,184.715,-22.1894
9145,154533.6,190.706,185.057,-22.3147
9157,154736.4,191.042,185.4,-22.3674
9169,154939.2,191.377,185.741,-22.4789
9181,155142,191.716,186.083,-22.4528
9193,155344.8,192.054,186.424,-22.4997
9205,155547.6,192.388,186.766,-22.6826
9217,155750.4,192.724,187.107,-22.6949
9229,155953.2,193.065,187.447,-22.6529
9241,156156,193.405,187.788,-22.7323
9253,156358.8,193.744,188.129,-22.7891
9265,156561.6,194.079,188.47,-22.8975
9277,156764.4,194.415,188.81,-22.9643
9289,156967.2,194.755,189.151,-23.1648
9301,157170,195.096,189.491,-23.1816
9313,157372.8,195.435,189.832,-23.3086
9325,157575.6,195.77,190.173,-23.34256
9337,157778.4,196.106,190.512,-23.4251
9349,157981.2,196.446,190.854,-23.4766
9361,158184,196.786,191.194,-23.53851
9373,158386.8,197.126,191.535,-23.7463
9385,158589.6,197.462,191.875,-23.6858
9397,158792.4,197.797,192.216,-23.82411
9409,158995.2,198.132,192.555,-23.795
9421,159198,198.468,192.895,-23.858
9433,159400.8,198.808,193.234,-23.8969
9445,159603.6,199.151,193.575,-23.9199
9457,159806.4,199.494,193.915,-24.2107
9469,160009.2,199.833,194.255,-24.3469
9481,160212,200.169,194.596,-24.3744
9493,160414.8,200.505,194.937,-24.4641
9505,160617.6,200.843,195.278,-24.5597
9517,160820.4,201.181,195.618,-24.6911
9529,161023.2,201.515,195.958,-24.8222
9541,161226,201.851,196.298,-24.8866
9553,161428.8,202.188,196.638,-24.82626
9565,161631.6,202.523,196.978,-24.8202
9577,161834.4,202.862,197.317,-24.97262
9589,162037.2,203.202,197.655,-25.2308
9601,162240,203.545,197.995,-25.2787
9613,162442.8,203.888,198.335,-25.3119
9625,162645.6,204.228,198.675,-25.4474
9637,162848.4,204.565,199.016,-25.50857
9649,163051.2,204.898,199.356,-25.5312
9661,163254,205.234,199.696,-25.823
9673,163456.8,205.574,200.036,-25.8984
9685,163659.6,205.915,200.377,-26.0249
9697,163862.4,206.252,200.718,-26.308
9709,164065.2,206.589,201.058,-26.3661
9721,164268,206.922,201.399,-26.4264
9733,164470.8,207.26,201.739,-26.6361
9745,164673.6,207.5996,202.08,-26.7277
9757,164876.4,207.94,202.42,-26.8337
9769,165079.2,208.279,202.76,-26.9573
9781,165282,208.614,203.1,-27.0055
9793,165484.8,208.952,203.44,-27.1435
9805,165687.6,209.289,203.781,-27.2732
9817,165890.4,209.624,204.121,-27.2177
9829,166093.2,209.96,204.46,-27.3075
9841,166296,210.3,204.799,-27.5795
9853,166498.8,210.643,205.139,-27.78225
9865,166701.6,210.985,205.478,-27.9095
9877,166904.4,211.323,205.819,-28.01657
9889,167107.2,211.659,206.159,-28.0806
9901,167310,211.996,206.499,-28.1923
9913,167512.8,212.332,206.839,-28.3071
9925,167715.6,212.666,207.179,-28.5271
9937,167918.4,213.004,207.519,-28.3014
9949,168121.2,213.345,207.858,-28.3447
9961,168324,213.688,208.197,-28.1991
9973,168526.8,214.027,208.538,-27.8715
9985,168729.6,214.363,208.879,-27.047
9997,168932.4,214.697,209.218,-25.3835
10009,169135.2,215.033,209.559,-23.997
10021,169338,215.373,209.898,-23.1139
10033,169540.8,215.715,210.239,-22.4907
10045,169743.6,216.056,210.579,-22.1876
10057,169946.4,216.393,210.921,-22.0945
10069,170149.2,216.728,211.261,-21.8847
10081,170352,217.062,211.601,-21.8001
10093,170554.8,217.401,211.94,-21.907
10105,170757.6,217.741,212.282,-22.0767
10117,170960.4,218.077,212.621,-22.068
10129,171163.2,218.417,212.961,-22.152
10141,171366,218.754,213.302,-22.0455
10153,171568.8,219.089,213.642,-21.8835
10165,171771.6,219.427,213.982,-21.86211
10177,171974.4,219.766,214.322,-21.9898
10189,172177.2,220.106,214.662,-21.9647
10201,172380,220.446,215.001,-21.9256
10213,172582.8,220.787,215.342,-21.9122
10225,172785.6,221.128,215.683,-22.0166
10237,172988.4,221.461,216.023,-22.0596
10249,173191.2,221.796,216.364,-22.0704
10261,173394,222.133,216.704,-22.2537
10273,173596.8,222.47,217.044,-22.2072
10285,173799.6,222.808,217.384,-22.2364
10297,174002.4,223.147,217.724,-22.2119
10309,174205.2,223.485,218.063,-22.2037
10321,174408,223.823,218.403,-22.389
10333,174610.8,224.162,218.744,-22.3811
10345,174813.6,224.503,219.083,-22.3741
10357,175016.4,224.841,219.423,-22.4923
10369,175219.2,225.178,219.764,-22.6237
10381,175422,225.519,220.104,-22.55463
10393,175624.8,225.859,220.445,-22.5608
10405,175827.6,226.198,220.787,-22.5123
10417,176030.4,226.537,221.128,-22.1969
10429,176233.2,226.87,221.469,-22.528
10441,176436,227.203,221.811,-22.6705
10453,176638.8,227.54,222.151,-22.75921
10465,176841.6,227.879,222.492,-22.5624
10477,177044.4,228.22,222.833,-22.6273
10489,177247.2,228.56,223.173,-22.7282
10501,177450,228.895,223.514,-22.9234
10513,177652.8,229.23,223.855,-22.9858
10525,177855.6,229.568,224.194,-22.6976
10537,178058.4,229.908,224.534,-22.82486
10549,178261.2,230.247,224.874,-22.8395
10561,178464,230.587,225.215,-22.9285
10573,178666.8,230.927,225.556,-22.9459
10585,178869.6,231.265,225.896,-22.9523
10597,179072.4,231.603,226.237,-23.0765
10609,179275.2,231.942,226.5786,-23.1484
10621,179478,232.276,226.92,-23.1174
10633,179680.8,232.608,227.259,-23.1402
10645,179883.6,232.946,227.6,-23.33
10657,180086.4,233.284,227.94,-23.3533
10669,180289.2,233.626,228.279,-23.0756
10681,180492,233.968,228.619,-22.9737
10693,180694.8,234.309,228.96,-23.129
10705,180897.6,234.645,229.3,-23.2148
10717,181100.4,234.979,229.641,-23.26579
10729,181303.2,235.316,229.982,-23.36
10741,181506,235.655,230.321,-23.372
10753,181708.8,235.996,230.662,-23.3344
10765,181911.6,236.334,231.002,-23.2033
10777,182114.4,236.67,231.343,-23.3512
10789,182317.2,237.006,231.683,-23.322
10801,182520,237.345,232.023,-23.3445
10813,182722.8,237.686,232.364,-23.4726
10825,182925.6,238.025,232.704,-23.3966
10837,183128.4,238.361,233.044,-23.3693
10849,183331.2,238.698,233.386,-23.5752
10861,183534,239.036,233.727,-23.6499
10873,183736.8,239.374,234.067,-23.6734
10885,183939.6,239.713,234.407,-23.5302
10897,184142.4,240.05,234.747,-23.5406
10909,184345.2,240.387,235.088,-23.62084
10921,184548,240.723,235.429,-23.6111
10933,184750.8,241.063,235.769,-23.6576
10945,184953.6,241.401,236.11,-23.6877
10957,185156.4,241.739,236.449,-23.6787
10969,185359.2,242.078,236.789,-23.6795
10981,185562,242.416,237.13,-23.8184
10993,185764.8,242.755,237.47,-23.9556
11005,185967.6,243.095,237.812,-23.9413
11017,186170.4,243.431,238.152,-24.0548
11029,186373.2,243.767,238.492,-24.0483
11041,186576,244.105,238.832,-24.0085
11053,186778.8,244.443,239.173,-24.03994
11065,186981.6,244.78,239.513,-23.9515
11077,187184.4,245.118,239.853,-24.0978
11089,187387.2,245.456,240.193,-24.0678
11101,187590,245.795,240.533,-24.0627
11113,187792.8,246.133,240.873,-24.0443
11125,187995.6,246.471,241.213,-24.1713
11137,188198.4,246.809,241.553,-24.0865
11149,188401.2,247.147,241.893,-24.1498
11161,188604,247.485,242.234,-24.22891
11173,188806.8,247.824,242.573,-24.2282
11185,189009.6,248.162,242.914,-24.3109
11197,189212.4,248.499,243.254,-24.2902
11209,189415.2,248.837,243.593,-24.194
11221,189618,249.176,243.934,-24.2913
11233,189820.8,249.513,244.273,-24.38041
11245,190023.6,249.851,244.613,-24.3778
11257,190226.4,250.189,244.954,-24.1997
11269,190429.2,250.527,245.294,-24.2969
11281,190632,250.865,245.634,-24.42973
11293,190834.8,251.203,245.973,-24.5362
11305,191037.6,251.541,246.314,-24.6061
11317,191240.4,251.88,246.654,-24.54129
11329,191443.2,252.218,246.994,-24.5677
11341,191646,252.554,247.334,-24.6398
11353,191848.8,252.893,247.673,-24.7174
11365,192051.6,253.231,248.013,-24.7769
11377,192254.4,253.567,248.353,-24.8139
11389,192457.2,253.905,248.693,-24.7949
11401,192660,254.244,249.0327,-24.7142
11413,192862.8,254.583,249.372,-24.6722
11425,193065.6,254.923,249.712,-24.7014
11437,193268.4,255.259,250.051,-24.7407
11449,193471.2,255.596,250.391,-24.8707
11461,193674,255.935,250.73,-25.00868
11473,193876.8,256.273,251.071,-24.9112
11485,194079.6,256.611,251.41,-24.962
11497,194282.4,256.95,251.75,-24.8885
11509,194485.2,257.288,252.091,-24.8512
11521,194688,257.626,252.43,-24.96
11533,194890.8,257.963,252.77,-25.082
11545,195093.6,258.3,253.11,-25.1354
11557,195296.4,258.64,253.45,-25.1291
11569,195499.2,258.976,253.79,-25.131
11581,195702,259.314,254.129,-25.1598
11593,195904.8,259.652,254.469,-25.24635
11605,196107.6,259.991,254.809,-25.2038
11617,196310.4,260.329,255.148,-25.1994
11629,196513.2,260.667,255.489,-25.2519
11641,196716,261.005,255.828,-25.38011
11653,196918.8,261.341,256.168,-25.4055
11665,197121.6,261.681,256.507,-25.3971
11677,197324.4,262.019,256.847,-25.439
11689,197527.2,262.358,257.187,-25.495
11701,197730,262.694,257.526,-25.4976
11713,197932.8,263.033,257.8658,-25.4822
11725,198135.6,263.37,258.206,-25.5479
11737,198338.4,263.71,258.545,-25.5976
11749,198541.2,264.046,258.885,-25.6344
11761,198744,264.384,259.224,-25.6774
11773,198946.8,264.722,259.564,-25.6726
11785,199149.6,265.059,259.902,-25.7041
11797,199352.4,265.398,260.241,-25.69
11809,199555.2,265.737,260.581,-25.7138
11821,199758,266.076,260.92,-25.77986
11833,199960.8,266.411,261.26,-25.8218
11845,200163.6,266.751,261.6,-25.87194
11857,200366.4,267.088,261.939,-25.9089
11869,200569.2,267.427,262.278,-25.9165
11881,200772,267.764,262.617,-25.9339
11893,200974.8,268.103,262.956,-25.9347
11905,201177.6,268.441,263.296,-26.0392
11917,201380.4,268.779,263.636,-26.1073
11929,201583.2,269.118,263.975,-26.1456
11941,201786,269.456,264.314,-26.1001
11953,201988.8,269.792,264.653,-26.1759
11965,202191.6,270.13,264.994,-26.1188
11977,202394.4,270.47,265.332,-26.1857
11989,202597.2,270.805,265.672,-26.3137
12001,202800,271.141,266.012,-26.3628
12013,203002.8,271.477,266.35,-26.3675
12025,203205.6,271.815,266.688,-26.3855
12037,203408.4,272.153,267.027,-26.4213
12049,203611.2,272.493,267.365,-26.442
12061,203814,272.834,267.704,-26.4603
12073,204016.8,273.173,268.042,-26.52961
12085,204219.6,273.511,268.38,-26.5959
12097,204422.4,273.849,268.719,-26.6484
12109,204625.2,274.187,269.057,-26.6714
12121,204828,274.525,269.396,-26.6831
12133,205030.8,274.863,269.735,-26.7054
12145,205233.6,275.202,270.074,-26.7605
12157,205436.4,275.541,270.413,-26.817
12169,205639.2,275.878,270.752,-26.86368
12181,205842,276.216,271.092,-26.91845
12193,206044.8,276.557,271.432,-26.89549
12205,206247.6,276.894,271.771,-26.9386
12217,206450.4,277.231,272.111,-26.9941
12229,206653.2,277.57,272.451,-27.07382
12241,206856,277.908,272.791,-27.1047
12253,207058.8,278.246,273.131,-27.1415
12265,207261.6,278.582,273.472,-27.1842
12277,207464.4,278.921,273.811,-27.2307
12289,207667.2,279.259,274.152,-27.26938
12301,207870,279.595,274.491,-27.2452
12313,208072.8,279.933,274.832,-27.2994
12325,208275.6,280.27,275.171,-27.3165
12337,208478.4,280.609,275.511,-27.3012
12349,208681.2,280.948,275.85,-27.3445
12361,208884,281.286,276.191,-27.3143
12373,209086.8,281.625,276.53,-27.3639
12385,209289.6,281.963,276.87,-27.3575
12397,209492.4,282.298,277.21,-27.4168
12409,209695.2,282.636,277.5503,-27.4901
12421,209898,282.975,277.89,-27.53497
12433,210100.8,283.312,278.23,-27.5638
12445,210303.6,283.65,278.569,-27.56752
12457,210506.4,283.987,278.908,-27.5333
12469,210709.2,284.328,279.247,-27.5655
12481,210912,284.666,279.587,-27.5938
12493,211114.8,285.003,279.926,-27.623
12505,211317.6,285.339,280.266,-27.6261
12517,211520.4,285.678,280.605,-27.616
12529,211723.2,286.016,280.944,-27.6327
12541,211926,286.354,281.283,-27.6549
12553,212128.8,286.689,281.622,-27.6655
12565,212331.6,287.025,281.961,-27.64719
12577,212534.4,287.365,282.298,-27.6402
12589,212737.2,287.702,282.636,-27.6621
12601,212940,288.041,282.975,-27.6726
12613,213142.8,288.381,283.3126,-27.6841
12625,213345.6,288.72,283.651,-27.7156
12637,213548.4,289.062,283.99,-27.7287
12649,213751.2,289.401,284.329,-27.749
12661,213954,289.741,284.667,-27.8026
12673,214156.8,290.078,285.007,-27.8747
12685,214359.6,290.413,285.347,-27.9183
12697,214562.4,290.751,285.687,-27.9548
12709,214765.2,291.09,286.026,-27.96149
12721,214968,291.425,286.365,-28.0162
12733,215170.8,291.76,286.705,-28.0416
12745,215373.6,292.095,287.043,-28.0345
12757,215576.4,292.435,287.382,-28.0437
12769,215779.2,292.774,287.72,-28.0256
12781,215982,293.112,288.059,-28.0666
12793,216184.8,293.452,288.397,-28.07892
12805,216387.6,293.789,288.735,-28.0888
12817,216590.4,294.125,289.074,-28.1289
12829,216793.2,294.466,289.411,-28.1539
12841,216996,294.806,289.749,-28.1835
12853,217198.8,295.145,290.088,-28.1914
12865,217401.6,295.482,290.426,-28.1935
12877,217604.4,295.819,290.765,-28.1992
12889,217807.2,296.158,291.103,-28.1855
12901,218010,296.496,291.441,-28.1974
12913,218212.8,296.834,291.779,-28.1957
12925,218415.6,297.174,292.116,-28.208
12937,218618.4,297.511,292.453,-28.2364
12949,218821.2,297.847,292.79,-28.2435
12961,219024,298.182,293.127,-28.2637
12973,219226.8,298.517,293.462,-28.2631
12985,219429.6,298.855,293.796,-28.2307
12997,219632.4,299.19,294.13,-28.1856
13009,219835.2,299.223,294.454,-28.0806
13021,220038,299.199,294.754,-27.6399
13033,220240.8,299.183,295.031,-26.6979
13045,220443.6,299.173,295.287,-25.394
13057,220646.4,299.165,295.523,-23.8986
13069,220849.2,299.161,295.741,-22.3288
13081,221052,299.16,295.941,-20.7629
13093,221254.8,299.162,296.126,-19.2413
13105,221457.6,299.165,296.296,-17.7817
13117,221660.4,299.159,296.453,-16.4358
13129,221863.2,299.153,296.597,-15.1701
13141,222066,299.148,296.728,-13.9875
13153,222268.8,299.15,296.849,-12.8541
13165,222471.6,299.153,296.96,-11.7841
13177,222674.4,299.153,297.062,-10.7996
13189,222877.2,299.153,297.156,-9.884481
13201,223080,299.152,297.243,-9.056218
13213,223282.8,299.15,297.321,-8.285356
13225,223485.6,299.147,297.394,-7.585075
13237,223688.4,299.149,297.46,-6.934573
13249,223891.2,299.152,297.52,-6.335191
13261,224094,299.152,297.576,-5.79961
13273,224296.8,299.1526,297.629,-5.295187
13285,224499.6,299.151,297.676,-4.838057
13297,224702.4,299.147,297.719,-4.425109
13309,224905.2,299.149,297.759,-4.028181
13321,225108,299.151,297.795,-3.666314
13333,225310.8,299.153,297.828,-3.337791
13345,225513.6,299.152,297.859,-3.035386
13357,225716.4,299.1505,297.888,-2.771287
13369,225919.2,299.145,297.913,-2.509098
13381,226122,299.142,297.936,-2.251048
13393,226324.8,299.141,297.956,-2.019107
13405,226527.6,299.145,297.973,-1.771043
13417,226730.4,299.151,297.991,-1.546676
13429,226933.2,299.151,298.007,-1.38325
13441,227136,299.151,298.021,-1.230473
13453,227338.8,299.144,298.034,-1.104133
13465,227541.6,299.14,298.046,-0.936262
13477,227744.4,299.1444,298.056,-0.799462
13489,227947.2,299.149,298.064,-0.661465
13501,228150,299.151,298.073,-0.549728
13513,228352.8,299.15,298.082,-0.485363
13525,228555.6,299.149,298.089,-0.393025
13537,228758.4,299.141,298.094,-0.315276
13549,228961.2,299.137,298.099,-0.222083
13561,229164,299.141,298.101,-0.124599
13573,229366.8,299.148,298.105,-0.017677
13585,229569.6,299.15,298.108,0.044279
13597,229772.4,299.146,298.111,0.084095
13609,229975.2,299.148,298.113,0.132149
13621,230178,299.142,298.115,0.178315
13633,230380.8,299.14,298.116,0.242845
13645,230583.6,299.14,298.116,0.311666
13657,230786.4,299.146,298.115,0.364869
13669,230989.2,299.154,298.115,0.412923
13681,231192,299.152,298.116,0.420817
13693,231394.8,299.152,298.118,0.431457
13705,231597.6,299.152,298.119,0.435918
13717,231800.4,299.145,298.121,0.445014
13729,232003.2,299.139,298.119,0.44141
13741,232206,299.144,298.119,0.4826
13753,232408.8,299.154,298.118,0.520872
13765,232611.6,299.158,298.119,0.524132
13777,232814.4,299.16,298.121,0.5346
13789,233017.2,299.145,298.123,0.480882
13801,233220,299.136,298.121,0.499761
13813,233422.8,299.134,298.119,0.554166
13825,233625.6,299.142,298.115,0.624533
13837,233828.4,299.151,298.114,0.66967
13849,234031.2,299.153,298.114,0.674133
13861,234234,299.152,298.112,0.656285
13873,234436.8,299.154,298.113,0.62093
13885,234639.6,299.158,298.113,0.585919
13897,234842.4,299.152,298.113,0.555885
13909,235045.2,299.15,298.113,0.549707
13921,235248,299.151,298.114,0.548848
13933,235450.8,299.145,298.114,0.54164
13945,235653.6,299.141,298.112,0.568243
13957,235856.4,299.144,298.111,0.605142
13969,236059.2,299.15,298.11,0.625566
13981,236262,299.149,298.109,0.641871
13993,236464.8,299.147,298.108,0.648049
14005,236667.6,299.145,298.107,0.644446
14017,236870.4,299.149,298.105,0.671221
14029,237073.2,299.142,298.104,0.655776
14041,237276,299.142,298.1,0.677059
14053,237478.8,299.143,298.098,0.696626
14065,237681.6,299.149,298.096,0.734042
14077,237884.4,299.145,298.095,0.729237
14089,238087.2,299.141,298.093,0.725463
14101,238290,299.147,298.09,0.74606
14113,238492.8,299.149,298.088,0.748636
14125,238695.6,299.142,298.085,0.736109
14137,238898.4,299.141,298.082,0.742461
14149,239101.2,299.146,298.079,0.76735
14161,239304,299.138,298.076,0.780568
14173,239506.8,299.132,298.07,0.812495
14185,239709.6,299.136,298.066,0.865361
14197,239912.4,299.143,298.06,0.89952
14209,240115.2,299.15,298.057,0.927156
14221,240318,299.151,298.053,0.90725
14233,240520.8,299.148,298.051,0.874298
14245,240723.6,299.154,298.048,0.858854
14257,240926.4,299.153,298.047,0.817663
14269,241129.2,299.148,298.045,0.779046
14281,241332,299.144,298.042,0.75193
14293,241534.8,299.151,298.04,0.759655
14305,241737.6,299.154,298.039,0.755194
14317,241940.4,299.149,298.038,0.753135
14329,242143.2,299.148,298.036,0.754166
14341,242346,299.15,298.035,0.72087
14353,242548.8,299.158,298.034,0.704565
14365,242751.6,299.154,298.034,0.666633
14377,242954.4,299.152,298.035,0.644663
14389,243157.2,299.154,298.035,0.629731
14401,243360,299.158,298.035,0.603814
14413,243562.8,299.153,298.036,0.568971
14425,243765.6,299.149,298.036,0.552666
14437,243968.4,299.147,298.036,0.549577
14449,244171.2,299.156,298.037,0.557643
14461,244374,299.152,298.038,0.577895
14473,244576.8,299.146,298.038,0.553867
14485,244779.6,299.148,298.038,0.562448
14497,244982.4,299.151,298.037,0.584761
14509,245185.2,299.153,298.038,0.59832
14521,245388,299.146,298.038,0.600036
14533,245590.8,299.147,298.038,0.612909
14545,245793.6,299.15,298.037,0.616686
14557,245996.4,299.154,298.037,0.616514
14569,246199.2,299.148,298.036,0.604672
14581,246402,299.148,298.037,0.598836
14593,246604.8,299.149,298.036,0.610164
14605,246807.6,299.152,298.036,0.614798
14617,247010.4,299.148,298.035,0.607247
14629,247213.2,299.149,298.035,0.624067
14641,247416,299.152,298.034,0.621836
14653,247618.8,299.151,298.034,0.619262
14665,247821.6,299.144,298.034,0.621322
14677,248024.4,299.145,298.032,0.616688
14689,248227.2,299.151,298.031,0.629905
14701,248430,299.153,298.032,0.636255
14713,248632.8,299.145,298.031,0.618406
14725,248835.6,299.144,298.03,0.628018
14737,249038.4,299.148,298.028,0.648444
14749,249241.2,299.151,298.029,0.670413
14761,249444,299.145,298.027,0.651191
14773,249646.8,299.145,298.027,0.658571
14785,249849.6,299.149,298.024,0.653424
14797,250052.4,299.156,298.025,0.664065
14809,250255.2,299.149,298.024,0.666125
14821,250458,299.142,298.023,0.649133
14833,250660.8,299.148,298.022,0.677626
14845,250863.6,299.15,298.021,0.69685
14857,251066.4,299.146,298.02,0.689814
14869,251269.2,299.148,298.019,0.690673
14881,251472,299.151,298.018,0.693591
14893,251674.8,299.158,298.018,0.692905
14905,251877.6,299.157,298.019,0.666128
14917,252080.4,299.154,298.019,0.61395
14929,252283.2,299.157,298.021,0.59095
14941,252486,299.161,298.023,0.554905
14953,252688.8,299.157,298.025,0.531218
14954,252705.7,299.156,298.025,0.531732