File: z_unorganized_archive/i_data/water_tests/archive/2014_run1.csv
H2O_run_03282014,,,,,
Creation Date : 3/2/2023 1:36:16 PM,,,,,
User : admin,,,,,
,,,,,
HeatFlow :,,,,,
 Initial Mass : 6000 mg,,,,,
 Molar Mass : 18 g/mol,,,,,
,,,,,
Baseline :,,,,,
 Initial Mass : 6000 mg,,,,,
 Molar Mass : 18 g/mol,,,,,
,,,,,
Index,Time(s),Furnace Temperature(K),Sample Temperature(K),HeatFlow(mW),Baseline(mW)
1,0,295.224,295.994,188.157,188.157
16,237,294.477,295.897,36.84867,36.84867
31,474,293.354,295.724,23.9024,23.9024
46,711,291.872,295.445,21.3291,21.3291
61,948,290.0591,295.039,25.5834,25.5834
76,1185,287.984,294.489,34.508,34.508
91,1422,285.722,293.79,46.6867,46.6867
106,1659,283.33,292.943,60.8649,60.8649
121,1896,280.907,291.961,75.8985,75.8985
136,2133,278.499,290.843,91.1566,91.1566
151,2370,276.13,289.604,106.16,106.16
166,2607,273.782,288.262,120.242,120.242
181,2844,271.375,286.828,133.121,133.121
196,3081,268.969,285.303,144.889,144.889
211,3318,266.618,283.707,155.549,155.549
226,3555,264.345,282.05,164.989,164.989
241,3792,262.119,280.345,173.129,173.129
256,4029,259.97,278.601,180.078,180.078
271,4266,257.923,276.833,185.919,185.919
286,4503,255.962,275.05,190.577,190.577
301,4740,254.068,273.261,194.271,194.271
316,4977,252.239,271.473,197.142,197.142
331,5214,250.462,269.691,199.433,199.433
346,5451,248.716,267.918,200.533,200.533
361,5688,246.973,266.153,200.77,200.77
376,5925,245.231,264.397,200.637,200.637
391,6162,243.467,262.647,200.441,200.441
406,6399,241.718,260.902,200.077,200.077
421,6636,239.949,259.164,200.023,200.023
436,6873,238.124,257.476,1895.24,1895.24
451,7110,236.338,255.835,1900.25,1900.25
466,7347,234.633,254.176,1905.42,1905.42
481,7584,232.988,252.476,903.419,903.419
496,7821,231.389,250.761,430.94,430.94
511,8058,229.825,249.056,233.927,233.927
526,8295,228.288,247.367,150.817,150.817
541,8532,226.742,245.694,115.064,115.064
556,8769,225.178,244.037,99.3872,99.3872
571,9006,223.571,242.39,93.2512,93.2512
586,9243,221.938,240.751,88.8621,88.8621
601,9480,220.204,239.114,86.8544,86.8544
616,9717,218.439,237.473,86.1396,86.1396
631,9954,216.718,235.83,85.6621,85.6621
646,10191,215.0721,234.189,85.2218,85.2218
661,10428,213.483,232.556,84.8657,84.8657
676,10665,211.927,230.936,84.3447,84.3447
691,10902,210.311,229.323,83.6587,83.6587
706,11139,208.681,227.715,82.8209,82.8209
721,11376,207.101,226.114,82.04114,82.04114
736,11613,205.566,224.522,81.4941,81.4941
751,11850,203.956,222.938,80.5319,80.5319
766,12087,202.277,221.354,79.8992,79.8992
781,12324,200.599,219.768,79.4468,79.4468
796,12561,198.98,218.184,79.1897,79.1897
811,12798,197.44,216.608,78.0065,78.0065
826,13035,195.964,215.044,77.1568,77.1568
841,13272,194.542,213.494,76.4016,76.4016
856,13509,193.147,211.958,75.1127,75.1127
871,13746,191.775,210.442,74.0421,74.0421
886,13983,190.357,208.939,72.5031,72.5031
901,14220,188.924,207.449,71.2175,71.2175
916,14457,187.44,205.966,70.7553,70.7553
931,14694,185.902,204.486,70.3757,70.3757
946,14931,184.396,203.009,69.5871,69.5871
961,15168,182.85,201.534,68.2842,68.2842
976,15405,181.2722,200.057,68.1984,68.1984
991,15642,179.754,198.582,68.0473,68.0473
1006,15879,178.221,197.108,67.8088,67.8088
1021,16116,176.606,195.634,67.0996,67.0996
1036,16353,174.892,194.15,67.1422,67.1422
1051,16590,173.173,192.657,67.03409,67.03409
1066,16827,171.568,191.156,67.316,67.316
1081,17064,170.018,189.656,67.0276,67.0276
1096,17301,168.579,188.16,66.2768,66.2768
1111,17538,167.199,186.674,66.4541,66.4541
1126,17775,165.881,185.203,65.4287,65.4287
1141,18012,164.523,183.746,63.7539,63.7539
1156,18249,163.197,182.302,62.8475,62.8475
1171,18486,161.912,180.872,62.9361,62.9361
1186,18723,160.631,179.459,62.0553,62.0553
1201,18960,159.286,178.055,60.95521,60.95521
1216,19197,157.849,176.661,59.9783,59.9783
1231,19434,156.374,175.265,58.4872,58.4872
1246,19671,154.972,173.874,57.3039,57.3039
1261,19908,153.615,172.485,57.0705,57.0705
1276,20145,152.357,171.108,56.3109,56.3109
1291,20382,151.099,169.742,55.6819,55.6819
1306,20619,149.753,168.385,55.2025,55.2025
1321,20856,148.369,167.033,54.1122,54.1122
1336,21093,147.026,165.685,53.737,53.737
1351,21330,145.749,164.344,53.3967,53.3967
1366,21567,144.549,163.012,52.6843,52.6843
1381,21804,143.414,161.696,51.5379,51.5379
1396,22041,142.237,160.392,51.1451,51.1451
1411,22278,141.002,159.1,50.6943,50.6943
1426,22515,139.803,157.819,49.3759,49.3759
1441,22752,138.672,156.547,48.61389,48.61389
1456,22989,137.603,155.289,47.985,47.985
1471,23226,136.529,154.047,46.9023,46.9023
1486,23463,135.457,152.82,46.0632,46.0632
1501,23700,134.391,151.606,44.7332,44.7332
1516,23937,133.382,150.407,44.4953,44.4953
1531,24174,132.422,149.224,43.7295,43.7295
1546,24411,131.466,148.058,43.1483,43.1483
1561,24648,130.481,146.909,42.5097,42.5097
1576,24885,129.464,145.773,41.4815,41.4815
1591,25122,128.463,144.649,40.7352,40.7352
1606,25359,127.451,143.534,39.8454,39.8454
1621,25596,126.499,142.431,39.8255,39.8255
1636,25833,125.641,141.34,39.2365,39.2365
1651,26070,124.799,140.268,38.5286,38.5286
1666,26307,123.964,139.213,37.39914,37.39914
1681,26544,123.1482,138.173,36.4498,36.4498
1696,26781,122.405,137.152,35.8465,35.8465
1711,27018,121.688,136.152,35.01182,35.01182
1726,27255,120.967,135.169,34.2721,34.2721
1741,27492,120.273,134.207,32.99449,32.99449
1756,27729,119.622,133.264,32.2187,32.2187
1771,27966,118.987,132.341,31.4817,31.4817
1786,28203,118.304,131.438,30.6236,30.6236
1801,28440,117.554,130.549,29.8963,29.8963
1816,28677,116.758,129.669,29.1676,29.1676
1831,28914,115.968,128.796,28.874,28.874
1846,29151,115.262,127.932,28.6133,28.6133
1861,29388,114.59,127.078,27.7862,27.7862
1876,29625,113.969,126.238,27.4207,27.4207
1891,29862,113.353,125.414,26.77774,26.77774
1906,30099,112.707,124.602,26.4451,26.4451
1921,30336,112.011,123.802,25.9571,25.9571
1936,30573,111.3,123.008,25.5182,25.5182
1951,30810,110.66,122.223,25.072,25.072
1966,31047,110.067,121.448,24.437,24.437
1981,31284,109.505,120.686,24.1495,24.1495
1996,31521,108.947,119.936,23.4608,23.4608
2011,31758,108.36,119.2,23.2444,23.2444
2026,31995,107.77,118.473,22.7825,22.7825
2041,32232,107.218,117.757,22.2965,22.2965
2056,32469,106.71,117.051,21.82,21.82
2071,32706,106.227,116.359,21.2732,21.2732
2086,32943,105.76,115.682,20.7059,20.7059
2101,33180,105.313,115.019,20.23144,20.23144
2116,33417,104.889,114.369,19.4893,19.4893
2131,33654,104.451,113.735,19.364,19.364
2146,33891,103.978,113.114,18.6455,18.6455
2161,34128,103.493,112.501,18.121,18.121
2176,34365,102.979,111.897,17.929,17.929
2191,34602,102.463,111.297,17.7619,17.7619
2206,34839,101.989,110.705,17.3817,17.3817
2221,35076,101.572,110.121,17.1363,17.1363
2236,35313,101.161,109.549,16.7971,16.7971
2251,35550,100.749,108.986,16.449,16.449
2266,35787,100.323,108.434,16.0043,16.0043
2281,36024,99.8701,107.889,15.6159,15.6159
2296,36261,99.4192,107.35,15.3187,15.3187
2311,36498,98.9998,106.817,15.0829,15.0829
2326,36735,98.6098,106.292,14.971,14.971
2341,36972,98.23017,105.777,14.7709,14.7709
2356,37209,97.9029,105.27,14.265,14.265
2371,37446,97.5905,104.776,13.9479,13.9479
2386,37683,97.2584,104.294,13.4704,13.4704
2401,37920,96.9131,103.821,13.1354,13.1354
2416,38157,96.5776,103.356,12.8335,12.8335
2431,38394,96.26554,102.9,12.4116,12.4116
2446,38631,95.9772,102.455,12.0136,12.0136
2461,38868,95.7161,102.019,11.7556,11.7556
2476,39105,95.441,101.596,11.4594,11.4594
2491,39342,95.1393,101.182,11.0372,11.0372
2506,39579,94.8199,100.774,10.76393,10.76393
2521,39816,94.4941,100.372,10.623,10.623
2536,40053,94.1816,99.9762,10.5281,10.5281
2551,40290,93.8998,99.5851,10.3269,10.3269
2566,40527,93.6415,99.2016,10.0183,10.0183
2581,40764,93.3903,98.8276,9.793677,9.793677
2596,41001,93.1255,98.461,9.502952,9.502952
2611,41238,92.85192,98.1012,9.227697,9.227697
2626,41475,92.5846,97.7466,9.013506,9.013506
2641,41712,92.3361,97.3985,8.874635,8.874635
2656,41949,92.1098,97.0572,8.689221,8.689221
2671,42186,91.9004,96.7244,8.403793,8.403793
2686,42423,91.68479,96.39913,8.208536,8.208536
2701,42660,91.4556,96.0806,7.976202,7.976202
2716,42897,91.2181,95.7685,7.791368,7.791368
2731,43134,90.973,95.461,7.585963,7.585963
2746,43371,90.7359,95.1581,7.458494,7.458494
2761,43608,90.5171,94.8589,7.420927,7.420927
2776,43845,90.3164,94.566,7.210534,7.210534
2791,44082,90.1301,94.2805,7.013434,7.013434
2806,44319,89.942,94.0006,6.811794,6.811794
2821,44556,89.7422,93.72785,6.554648,6.554648
2836,44793,89.5331,93.4579,6.436904,6.436904
2851,45030,89.3212,93.1921,6.255798,6.255798
2866,45267,89.1147,92.9309,6.101872,6.101872
2881,45504,88.9247,92.6734,6.019552,6.019552
2896,45741,88.751,92.4209,5.992738,5.992738
2911,45978,88.5856,92.1743,5.805276,5.805276
2926,46215,88.4228,91.9328,5.634053,5.634053
2941,46452,88.2592,91.6972,5.495101,5.495101
2956,46689,88.0919,91.4656,5.365876,5.365876
2971,46926,87.934,91.2389,5.189255,5.189255
2986,47163,87.7898,91.0172,5.013101,5.013101
3001,47400,87.6588,90.8008,4.908712,4.908712
3016,47637,87.5316,90.5902,4.712422,4.712422
3031,47874,87.4038,90.3856,4.492697,4.492697
3046,48111,87.268,90.1865,4.334399,4.334399
3061,48348,87.1287,89.9916,4.228382,4.228382
3076,48585,86.9857,89.8005,4.115544,4.115544
3091,48822,86.8532,89.6126,3.982569,3.982569
3106,49059,86.73255,89.4294,3.862271,3.862271
3121,49296,86.6229,89.25022,3.772942,3.772942
3136,49533,86.5159,89.0761,3.663794,3.663794
3151,49770,86.4031,88.90647,3.530658,3.530658
3166,50007,86.2817,88.7407,3.435743,3.435743
3181,50244,86.1508,88.57778,3.32436,3.32436
3196,50481,86.0196,88.4169,3.248103,3.248103
3211,50718,85.8976,88.2575,3.206786,3.206786
3226,50955,85.788,88.1022,3.140818,3.140818
3241,51192,85.68804,87.9496,3.086217,3.086217
3256,51429,85.5879,87.8012,2.99443,2.99443
3271,51666,85.479,87.6556,2.887588,2.887588
3286,51903,85.3648,87.5123,2.805671,2.805671
3301,52140,85.2478,87.3705,2.736333,2.736333
3316,52377,85.135,87.2313,2.661427,2.661427
3331,52614,85.0319,87.0942,2.630621,2.630621
3346,52851,84.9361,86.9593,2.571195,2.571195
3361,53088,84.8489,86.8282,2.492883,2.492883
3376,53325,84.7645,86.6994,2.423445,2.423445
3391,53562,84.6831,86.5737,2.352226,2.352226
3406,53799,84.60665,86.4519,2.262036,2.262036
3421,54036,84.5355,86.3328,2.174999,2.174999
3436,54273,84.4591,86.2177,2.094937,2.094937
3451,54510,84.3765,86.1048,2.026128,2.026128
3466,54747,84.2876,85.99378,1.965561,1.965561
3481,54984,84.1958,85.8839,1.913279,1.913279
3496,55221,84.10639,85.7754,1.874303,1.874303
3511,55458,84.0227,85.669,1.837893,1.837893
3526,55695,83.9468,85.5642,1.799451,1.799451
3541,55932,83.8769,85.4615,1.746235,1.746235
3556,56169,83.8101,85.3611,1.688619,1.688619
3571,56406,83.7413,85.2627,1.621577,1.621577
3586,56643,83.6696,85.1671,1.574078,1.574078
3601,56880,83.59632,85.0725,1.529178,1.529178
3616,57117,83.5236,84.9795,1.482227,1.482227
3631,57354,83.4576,84.8883,1.439813,1.439813
3646,57591,83.3974,84.799,1.387974,1.387974
3661,57828,83.3417,84.7118,1.327847,1.327847
3676,58065,83.2901,84.6269,1.274581,1.274581
3691,58302,83.2339,84.5439,1.226256,1.226256
3706,58539,83.1742,84.4632,1.177429,1.177429
3721,58776,83.11492,84.3837,1.148002,1.148002
3736,59013,83.0588,84.306,1.120456,1.120456
3751,59250,83.0083,84.2304,1.073312,1.073312
3766,59487,82.9629,84.1565,1.018256,1.018256
3781,59724,82.915,84.08457,0.975612,0.975612
3796,59961,82.8624,84.0138,0.928194,0.928194
3811,60198,82.8097,83.9455,0.884991,0.884991
3826,60435,82.7544,83.8767,0.856628,0.856628
3841,60672,82.7006,83.8099,0.835267,0.835267
3856,60909,82.652,83.7431,0.809165,0.809165
3871,61146,82.6086,83.6788,0.777112,0.777112
3886,61383,82.5681,83.6154,0.744615,0.744615
3901,61620,82.5291,83.554,0.70301,0.70301
3916,61857,82.4872,83.4948,0.664484,0.664484
3931,62094,82.4397,83.4364,0.630238,0.630238
3946,62331,82.3892,83.3784,0.610528,0.610528
3961,62568,82.34133,83.3209,0.602623,0.602623
3976,62805,82.2979,83.264,0.576947,0.576947
3991,63042,82.2591,83.2085,0.553205,0.553205
4006,63279,82.2219,83.1537,0.52864,0.52864
4021,63516,82.1841,83.1005,0.504038,0.504038
4036,63753,82.14469,83.049,0.475839,0.475839
4051,63990,82.1051,82.9978,0.457501,0.457501
4066,64227,82.0674,82.947,0.432806,0.432806
4081,64464,82.0335,82.8987,0.421146,0.421146
4096,64701,82.0047,82.8505,0.404321,0.404321
4111,64938,81.9783,82.8041,0.361692,0.361692
4126,65175,81.95603,82.7584,0.33608,0.33608
4141,65412,81.9344,82.71572,0.288202,0.288202
4156,65649,81.9093,82.6734,0.260136,0.260136
4171,65886,81.8841,82.6332,0.229258,0.229258
4186,66123,81.863,82.5935,0.19716,0.19716
4201,66360,81.8464,82.5555,0.166621,0.166621
4216,66597,81.8329,82.5199,0.146795,0.146795
4231,66834,81.8213,82.4855,0.125758,0.125758
4246,67071,81.8073,82.4524,0.091167,0.091167
4261,67308,81.7884,82.4205,0.056153,0.056153
4276,67545,81.7658,82.3896,0.0247,0.0247
4291,67782,81.7462,82.35932,0.011955,0.011955
4306,68019,81.731,82.33,-0.020729,-0.020729
4321,68256,81.7215,82.3019,-0.040275,-0.040275
4336,68493,81.7176,82.2743,-0.053052,-0.053052
4351,68730,81.7164,82.2492,-0.079799,-0.079799
4366,68967,81.7152,82.2262,-0.133297,-0.133297
4381,69204,81.71572,82.2051,-0.174844,-0.174844
4396,69441,81.7201,82.1847,-0.210418,-0.210418
4411,69678,81.7293,82.1666,-0.234022,-0.234022
4426,69915,81.7425,82.1501,-0.285989,-0.285989
4441,70152,81.749,82.1367,-0.337965,-0.337965
4456,70389,81.7463,82.123,-0.365184,-0.365184
4471,70626,81.7368,82.1106,-0.390808,-0.390808
4486,70863,81.728,82.0982,-0.379671,-0.379671
4501,71100,81.7247,82.0863,-0.404902,-0.404902
4516,71337,81.7298,82.0747,-0.422143,-0.422143
4531,71574,81.7418,82.0654,-0.413391,-0.413391
4546,71811,81.7541,82.0566,-0.454613,-0.454613
4561,72048,81.76264,82.0503,-0.499829,-0.499829
4576,72285,81.7717,82.0445,-0.50426,-0.50426
4591,72522,81.7844,82.0398,-0.541877,-0.541877
4606,72759,81.8082,82.0367,-0.582288,-0.582288
4621,72996,81.8383,82.0358,-0.595891,-0.595891
4636,73233,81.8724,82.0367,-0.656274,-0.656274
4651,73470,81.8995,82.04,-0.689043,-0.689043
4666,73707,81.9215,82.0448,-0.743791,-0.743791
4681,73944,81.9468,82.0511,-0.778527,-0.778527
4696,74181,81.9763,82.0585,-0.784861,-0.784861
4711,74418,82.0032,82.0679,-0.838352,-0.838352
4726,74655,82.0295,82.0781,-0.855047,-0.855047
4741,74892,82.0532,82.0887,-0.884525,-0.884525
4756,75129,82.0643,82.101,-0.906786,-0.906786
4771,75366,82.06571,82.1122,-0.917064,-0.917064
4786,75603,82.066,82.1228,-0.887791,-0.887791
4801,75840,82.0765,82.1334,-0.898474,-0.898474
4816,76077,82.09986,82.1439,-0.89877,-0.89877
4831,76314,82.1379,82.1556,-0.901851,-0.901851
4846,76551,82.1866,82.1696,-0.933261,-0.933261
4861,76788,82.2392,82.1863,-0.976611,-0.976611
4876,77025,82.2949,82.2052,-1.038681,-1.038681
4891,77262,82.3365,82.2263,-1.069971,-1.069971
4906,77499,82.3653,82.2497,-1.128348,-1.128348
4921,77736,82.3941,82.27175,-1.140442,-1.140442
4936,77973,82.4298,82.29563,-1.15171,-1.15171
4951,78210,82.4696,82.3198,-1.182902,-1.182902
4966,78447,82.4995,82.3448,-1.181783,-1.181783
4981,78684,82.5306,82.3713,-1.212521,-1.212521
4996,78921,82.5631,82.3966,-1.199041,-1.199041
5011,79158,82.58483,82.4223,-1.226184,-1.226184
5026,79395,82.5938,82.4482,-1.22743,-1.22743
5041,79632,82.5987,82.4717,-1.186915,-1.186915
5056,79869,82.6109,82.4949,-1.178657,-1.178657
5071,80106,82.6386,82.5178,-1.172794,-1.172794
5086,80343,82.6832,82.5404,-1.155801,-1.155801
5101,80580,82.7425,82.5654,-1.178548,-1.178548
5116,80817,83.0745,82.5981,-1.27114,-1.27114
5131,81054,83.6873,82.6605,-1.645643,-1.645643
5146,81291,84.2295,82.7593,-2.26207,-2.26207
5161,81528,84.6729,82.88674,-2.930573,-2.930573
5176,81765,85.0738,83.0361,-3.466234,-3.466234
5191,82002,85.4659,83.2033,-3.920826,-3.920826
5206,82239,85.8568,83.387,-4.304835,-4.304835
5221,82476,86.24317,83.585,-4.649263,-4.649263
5236,82713,86.6395,83.7965,-4.966806,-4.966806
5251,82950,87.04267,84.0216,-5.247715,-5.247715
5266,83187,87.4456,84.2589,-5.550409,-5.550409
5281,83424,87.8458,84.5079,-5.796748,-5.796748
5296,83661,88.2417,84.7675,-6.05046,-6.05046
5311,83898,88.6355,85.0369,-6.259184,-6.259184
5326,84135,89.0299,85.3149,-6.4851,-6.4851
5341,84372,89.4251,85.6003,-6.669563,-6.669563
5356,84609,89.8212,85.8941,-6.868883,-6.868883
5371,84846,90.21723,86.195,-7.028629,-7.028629
5386,85083,90.6113,86.5018,-7.199956,-7.199956
5401,85320,91.0062,86.8141,-7.349299,-7.349299
5416,85557,91.4041,87.1324,-7.498043,-7.498043
5431,85794,91.8,87.4565,-7.62615,-7.62615
5446,86031,92.1964,87.7846,-7.749386,-7.749386
5461,86268,92.5948,88.1183,-7.874796,-7.874796
5476,86505,92.9933,88.456,-7.994244,-7.994244
5491,86742,93.3907,88.799,-8.108036,-8.108036
5506,86979,93.7849,89.1438,-8.221705,-8.221705
5521,87216,94.178,89.4929,-8.323195,-8.323195
5536,87453,94.5701,89.8455,-8.41343,-8.41343
5551,87690,94.9645,90.1992,-8.504119,-8.504119
5566,87927,95.3576,90.5559,-8.562844,-8.562844
5581,88164,95.7506,90.9151,-8.653512,-8.653512
5596,88401,96.14585,91.2763,-8.712875,-8.712875
5611,88638,96.5407,91.6387,-8.791742,-8.791742
5626,88875,96.93653,92.0033,-8.850778,-8.850778
5641,89112,97.3301,92.369,-8.914422,-8.914422
5656,89349,97.7258,92.7363,-8.989397,-8.989397
5671,89586,98.1218,93.1039,-9.038143,-9.038143
5686,89823,98.516,93.4747,-9.088834,-9.088834
5701,90060,98.9112,93.846,-9.147369,-9.147369
5716,90297,99.307,94.2191,-9.204009,-9.204009
5731,90534,99.7004,94.5907,-9.243152,-9.243152
5746,90771,100.094,94.965,-9.300855,-9.300855
5761,91008,100.487,95.3394,-9.342799,-9.342799
5776,91245,100.88,95.7146,-9.380968,-9.380968
5791,91482,101.274,96.08959,-9.428354,-9.428354
5806,91719,101.67,96.4658,-9.46845,-9.46845
5821,91956,102.064,96.842,-9.503149,-9.503149
5836,92193,102.459,97.2191,-9.551392,-9.551392
5851,92430,102.858,97.5969,-9.585239,-9.585239
5866,92667,103.257,97.9752,-9.62025,-9.62025
5881,92904,103.656,98.3549,-9.678877,-9.678877
5896,93141,104.052,98.7354,-9.7303,-9.7303
5911,93378,104.444,99.116,-9.787896,-9.787896
5926,93615,104.836,99.4984,-9.814274,-9.814274
5941,93852,105.223,99.87937,-9.868625,-9.868625
5956,94089,105.61,100.26,-9.890485,-9.890485
5971,94326,106.006,100.64,-9.90324,-9.90324
5986,94563,106.411,101.021,-9.922303,-9.922303
6001,94800,106.809,101.402,-9.998463,-9.998463
6016,95037,107.197,101.783,-10.0305,-10.0305
6031,95274,107.587,102.166,-10.0695,-10.0695
6046,95511,107.9867,102.548,-10.1011,-10.1011
6061,95748,108.391,102.93,-10.1369,-10.1369
6076,95985,108.792,103.314,-10.1936,-10.1936
6091,96222,109.18,103.698,-10.2379,-10.2379
6106,96459,109.571,104.081,-10.2685,-10.2685
6121,96696,109.966,104.465,-10.3164,-10.3164
6136,96933,110.354,104.848,-10.3489,-10.3489
6151,97170,110.751,105.232,-10.3764,-10.3764
6166,97407,111.148,105.617,-10.4098,-10.4098
6181,97644,111.545,106,-10.4387,-10.4387
6196,97881,111.941,106.384,-10.4892,-10.4892
6211,98118,112.331,106.769,-10.5235,-10.5235
6226,98355,112.729,107.153,-10.5439,-10.5439
6241,98592,113.133,107.538,-10.5982,-10.5982
6256,98829,113.531,107.924,-10.642,-10.642
6271,99066,113.924,108.31,-10.6825,-10.6825
6286,99303,114.318,108.697,-10.7306,-10.7306
6301,99540,114.708,109.084,-10.7694,-10.7694
6316,99777,115.091,109.47,-10.8044,-10.8044
6331,100014,115.485,109.855,-10.8082,-10.8082
6346,100251,115.888,110.24,-10.8324,-10.8324
6361,100488,116.291,110.626,-10.8544,-10.8544
6376,100725,116.679,111.013,-10.9068,-10.9068
6391,100962,117.069,111.399,-10.93479,-10.93479
6406,101199,117.47,111.785,-10.9445,-10.9445
6421,101436,117.873,112.172,-10.9786,-10.9786
6436,101673,118.269,112.559,-11.0004,-11.0004
6451,101910,118.659,112.947,-11.0583,-11.0583
6466,102147,119.045,113.333,-11.0718,-11.0718
6481,102384,119.441,113.72,-11.1043,-11.1043
6496,102621,119.835,114.107,-11.10823,-11.10823
6511,102858,120.232,114.495,-11.1465,-11.1465
6526,103095,120.624,114.881,-11.15503,-11.15503
6541,103332,121.021,115.268,-11.1788,-11.1788
6556,103569,121.425,115.654,-11.1989,-11.1989
6571,103806,121.821,116.042,-11.2395,-11.2395
6586,104043,122.197,116.428,-11.2655,-11.2655
6601,104280,122.564,116.812,-11.2676,-11.2676
6616,104517,122.96,117.191,-11.1884,-11.1884
6631,104754,123.38,117.572,-11.168,-11.168
6646,104991,123.801,117.954,-11.1656,-11.1656
6661,105228,124.199,118.339,-11.2496,-11.2496
6676,105465,124.574,118.724,-11.3017,-11.3017
6691,105702,124.968,119.107,-11.3379,-11.3379
6706,105939,125.378,119.491,-11.3337,-11.3337
6721,106176,125.766,119.876,-11.4053,-11.4053
6736,106413,126.128,120.259,-11.4203,-11.4203
6751,106650,126.516,120.639,-11.3841,-11.3841
6766,106887,126.932,121.018,-11.3485,-11.3485
6781,107124,127.35,121.399,-11.3621,-11.3621
6796,107361,127.754,121.784,-11.4234,-11.4234
6811,107598,128.128,122.167,-11.483,-11.483
6826,107835,128.51,122.549,-11.5046,-11.5046
6841,108072,128.92,122.93,-11.5035,-11.5035
6856,108309,129.33,123.314,-11.5399,-11.5399
6871,108546,129.727,123.7,-11.5974,-11.5974
6886,108783,130.125,124.086,-11.6506,-11.6506
6901,109020,130.505,124.473,-11.71097,-11.71097
6916,109257,130.89,124.858,-11.7386,-11.7386
6931,109494,131.293,125.242,-11.744,-11.744
6946,109731,131.675,125.628,-11.7704,-11.7704
6961,109968,132.049,126.01,-11.7595,-11.7595
6976,110205,132.452,126.392,-11.7409,-11.7409
6991,110442,132.873,126.774,-11.73272,-11.73272
7006,110679,133.282,127.159,-11.7891,-11.7891
7021,110916,133.665,127.544,-11.8451,-11.8451
7036,111153,134.029,127.928,-11.8762,-11.8762
7051,111390,134.42,128.31,-11.8722,-11.8722
7066,111627,134.839,128.692,-11.8584,-11.8584
7081,111864,135.251,129.076,-11.89884,-11.89884
7096,112101,135.66,129.463,-11.9554,-11.9554
7111,112338,136.033,129.85,-12.0246,-12.0246
7126,112575,136.407,130.235,-12.0595,-12.0595
7141,112812,136.811,130.62,-12.0501,-12.0501
7156,113049,137.222,131.005,-12.0769,-12.0769
7171,113286,137.633,131.393,-12.1221,-12.1221
7186,113523,138.017,131.782,-12.1946,-12.1946
7201,113760,138.394,132.169,-12.229,-12.229
7216,113997,138.789,132.556,-12.2437,-12.2437
7231,114234,139.203,132.945,-12.2676,-12.2676
7246,114471,139.605,133.335,-12.30613,-12.30613
7261,114708,139.991,133.725,-12.3659,-12.3659
7276,114945,140.381,134.114,-12.3891,-12.3891
7291,115182,140.765,134.503,-12.4318,-12.4318
7306,115419,141.163,134.892,-12.4371,-12.4371
7321,115656,141.57,135.281,-12.4609,-12.4609
7336,115893,141.969,135.6724,-12.5022,-12.5022
7351,116130,142.334,136.063,-12.5403,-12.5403
7366,116367,142.713,136.451,-12.5534,-12.5534
7381,116604,143.12,136.838,-12.5451,-12.5451
7396,116841,143.524,137.226,-12.5562,-12.5562
7411,117078,143.946,137.617,-12.6066,-12.6066
7426,117315,144.349,138.008,-12.6579,-12.6579
7441,117552,144.753,138.402,-12.7214,-12.7214
7456,117789,145.128,138.796,-12.7737,-12.7737
7471,118026,145.49,139.187,-12.80998,-12.80998
7486,118263,145.875,139.576,-12.8062,-12.8062
7501,118500,146.289,139.966,-12.7929,-12.7929
7516,118737,146.699,140.357,-12.81514,-12.81514
7531,118974,147.115,140.75,-12.8746,-12.8746
7546,119211,147.507,141.144,-12.9194,-12.9194
7561,119448,147.906,141.538,-12.9838,-12.9838
7576,119685,148.277,141.931,-13.0217,-13.0217
7591,119922,148.651,142.323,-13.0293,-13.0293
7606,120159,149.059,142.714,-13.03991,-13.03991
7621,120396,149.474,143.107,-13.0553,-13.0553
7636,120633,149.872,143.5,-13.1067,-13.1067
7651,120870,150.28,143.895,-13.165,-13.165
7666,121107,150.654,144.289,-13.2181,-13.2181
7681,121344,151.045,144.682,-13.2565,-13.2565
7696,121581,151.449,145.075,-13.2836,-13.2836
7711,121818,151.849,145.47,-13.3298,-13.3298
7726,122055,152.254,145.864,-13.3903,-13.3903
7741,122292,152.62,146.259,-13.45497,-13.45497
7756,122529,153,146.65,-13.4924,-13.4924
7771,122766,153.404,147.043,-13.5083,-13.5083
7786,123003,153.812,147.436,-13.5373,-13.5373
7801,123240,154.227,147.83,-13.586,-13.586
7816,123477,154.62,148.226,-13.6268,-13.6268
7831,123714,155.018,148.622,-13.648,-13.648
7846,123951,155.379,149.016,-13.6327,-13.6327
7861,124188,155.756,149.409,-13.6004,-13.6004
7876,124425,156.156,149.799,-13.5548,-13.5548
7891,124662,156.565,150.192,-13.5383,-13.5383
7906,124899,156.975,150.586,-13.5589,-13.5589
7921,125136,157.391,150.982,-13.5962,-13.5962
7936,125373,157.779,151.379,-13.6341,-13.6341
7951,125610,158.159,151.774,-13.6801,-13.6801
7966,125847,158.541,152.168,-13.7024,-13.7024
7981,126084,158.931,152.562,-13.6939,-13.6939
7996,126321,159.348,152.956,-13.7025,-13.7025
8011,126558,159.756,153.35,-13.7333,-13.7333
8026,126795,160.151,153.746,-13.769,-13.769
8041,127032,160.56,154.144,-13.8,-13.8
8056,127269,160.94,154.54,-13.8512,-13.8512
8071,127506,161.305,154.935,-13.89639,-13.89639
8086,127743,161.682,155.328,-13.8749,-13.8749
8101,127980,162.081,155.721,-13.8672,-13.8672
8116,128217,162.507,156.114,-13.8736,-13.8736
8131,128454,162.911,156.509,-13.8953,-13.8953
8146,128691,163.309,156.906,-13.94394,-13.94394
8161,128928,163.7,157.302,-14.0026,-14.0026
8176,129165,164.066,157.696,-14.0191,-14.0191
8191,129402,164.455,158.09,-14.021,-14.021
8206,129639,164.871,158.484,-14.0345,-14.0345
8221,129876,165.274,158.879,-14.048,-14.048
8236,130113,165.678,159.276,-14.1095,-14.1095
8251,130350,166.082,159.672,-14.129,-14.129
8266,130587,166.446,160.068,-14.1879,-14.1879
8281,130824,166.846,160.462,-14.2161,-14.2161
8296,131061,167.252,160.858,-14.2108,-14.2108
8311,131298,167.649,161.254,-14.2518,-14.2518
8326,131535,168.059,161.65,-14.2788,-14.2788
8341,131772,168.445,162.047,-14.3163,-14.3163
8356,132009,168.817,162.444,-14.2988,-14.2988
8371,132246,169.201,162.837,-14.2832,-14.2832
8386,132483,169.609,163.232,-14.2908,-14.2908
8401,132720,170.011,163.627,-14.335,-14.335
8416,132957,170.381,164.022,-14.3656,-14.3656
8431,133194,170.764,164.415,-14.3793,-14.3793
8446,133431,171.179,164.808,-14.385,-14.385
8461,133668,171.591,165.204,-14.3995,-14.3995
8476,133905,171.991,165.6,-14.4313,-14.4313
8491,134142,172.4,165.997,-14.4958,-14.4958
8506,134379,172.786,166.394,-14.55278,-14.55278
8521,134616,173.189,166.7909,-14.5829,-14.5829
8536,134853,173.581,167.188,-14.6103,-14.6103
8551,135090,173.97,167.585,-14.656,-14.656
8566,135327,174.346,167.98,-14.62394,-14.62394
8581,135564,174.724,168.374,-14.6212,-14.6212
8596,135801,175.127,168.769,-14.6214,-14.6214
8611,136038,175.547,169.164,-14.5972,-14.5972
8626,136275,175.943,169.56,-14.64,-14.64
8641,136512,176.347,169.957,-14.6658,-14.6658
8656,136749,176.729,170.354,-14.7091,-14.7091
8671,136986,177.129,170.75,-14.7409,-14.7409
8686,137223,177.53,171.147,-14.7479,-14.7479
8701,137460,177.924,171.544,-14.7583,-14.7583
8716,137697,178.314,171.941,-14.7849,-14.7849
8731,137934,178.686,172.336,-14.8065,-14.8065
8746,138171,179.074,172.731,-14.8099,-14.8099
8761,138408,179.489,173.125,-14.8149,-14.8149
8776,138645,179.891,173.522,-14.7976,-14.7976
8791,138882,180.301,173.919,-14.8096,-14.8096
8806,139119,180.697,174.317,-14.84507,-14.84507
8821,139356,181.085,174.716,-14.8784,-14.8784
8836,139593,181.455,175.111,-14.8755,-14.8755
8851,139830,181.862,175.508,-14.8956,-14.8956
8866,140067,182.261,175.905,-14.9471,-14.9471
8881,140304,182.654,176.301,-15.0239,-15.0239
8896,140541,183.049,176.698,-15.0602,-15.0602
8911,140778,183.439,177.095,-15.1043,-15.1043
8926,141015,183.813,177.489,-15.1657,-15.1657
8941,141252,184.195,177.884,-15.1457,-15.1457
8956,141489,184.603,178.277,-15.1543,-15.1543
8971,141726,185.025,178.671,-15.18,-15.18
8986,141963,185.423,179.068,-15.2235,-15.2235
9001,142200,185.829,179.466,-15.2807,-15.2807
9016,142437,186.213,179.863,-15.326,-15.326
9031,142674,186.585,180.259,-15.3937,-15.3937
9046,142911,186.982,180.653,-15.42292,-15.42292
9061,143148,187.387,181.048,-15.3604,-15.3604
9076,143385,187.794,181.445,-15.3896,-15.3896
9091,143622,188.2,181.843,-15.45,-15.45
9106,143859,188.576,182.24,-15.5037,-15.5037
9121,144096,188.968,182.637,-15.54328,-15.54328
9136,144333,189.367,183.032,-15.5805,-15.5805
9151,144570,189.773,183.43,-15.6279,-15.6279
9166,144807,190.172,183.827,-15.6554,-15.6554
9181,145044,190.573,184.226,-15.6816,-15.6816
9196,145281,190.952,184.624,-15.7121,-15.7121
9211,145518,191.336,185.022,-15.7337,-15.7337
9226,145755,191.738,185.419,-15.6949,-15.6949
9241,145992,192.139,185.816,-15.7272,-15.7272
9256,146229,192.524,186.214,-15.7624,-15.7624
9271,146466,192.893,186.61,-15.7556,-15.7556
9286,146703,193.292,187.003,-15.7682,-15.7682
9301,146940,193.7,187.397,-15.74722,-15.74722
9316,147177,194.112,187.794,-15.7763,-15.7763
9331,147414,194.517,188.191,-15.8652,-15.8652
9346,147651,194.905,188.589,-15.9316,-15.9316
9361,147888,195.298,188.987,-15.9541,-15.9541
9376,148125,195.698,189.385,-15.9503,-15.9503
9391,148362,196.094,189.784,-15.9838,-15.9838
9406,148599,196.456,190.181,-15.9903,-15.9903
9421,148836,196.839,190.574,-15.9707,-15.9707
9436,149073,197.247,190.967,-15.9494,-15.9494
9451,149310,197.661,191.364,-16.0042,-16.0042
9466,149547,198.071,191.76,-16.0571,-16.0571
9481,149784,198.457,192.157,-16.1253,-16.1253
9496,150021,198.838,192.555,-16.1806,-16.1806
9511,150258,199.233,192.95,-16.1796,-16.1796
9526,150495,199.643,193.346,-16.1792,-16.1792
9541,150732,200.044,193.743,-16.22107,-16.22107
9556,150969,200.435,194.142,-16.3022,-16.3022
9571,151206,200.818,194.539,-16.3082,-16.3082
9586,151443,201.216,194.935,-16.2885,-16.2885
9601,151680,201.625,195.332,-16.27885,-16.27885
9616,151917,202.021,195.731,-16.3158,-16.3158
9631,152154,202.418,196.13,-16.377,-16.377
9646,152391,202.806,196.529,-16.4183,-16.4183
9661,152628,203.207,196.927,-16.45,-16.45
9676,152865,203.603,197.327,-16.48717,-16.48717
9691,153102,203.9979,197.728,-16.5279,-16.5279
9706,153339,204.385,198.129,-16.6049,-16.6049
9721,153576,204.772,198.528,-16.6353,-16.6353
9736,153813,205.166,198.926,-16.627,-16.627
9751,154050,205.552,199.325,-16.6569,-16.6569
9766,154287,205.948,199.721,-16.6459,-16.6459
9781,154524,206.358,200.118,-16.6636,-16.6636
9796,154761,206.748,200.517,-16.6794,-16.6794
9811,154998,207.122,200.913,-16.7071,-16.7071
9826,155235,207.503,201.308,-16.6907,-16.6907
9841,155472,207.917,201.701,-16.6772,-16.6772
9856,155709,208.325,202.096,-16.70669,-16.70669
9871,155946,208.732,202.493,-16.7802,-16.7802
9886,156183,209.132,202.891,-16.8594,-16.8594
9901,156420,209.508,203.289,-16.9043,-16.9043
9916,156657,209.904,203.686,-16.9179,-16.9179
9931,156894,210.306,204.083,-16.9389,-16.9389
9946,157131,210.711,204.481,-16.9749,-16.9749
9961,157368,211.103,204.88,-17.0519,-17.0519
9976,157605,211.492,205.278,-17.0816,-17.0816
9991,157842,211.885,205.676,-17.0891,-17.0891
10006,158079,212.287,206.075,-17.1502,-17.1502
10021,158316,212.686,206.474,-17.1729,-17.1729
10036,158553,213.083,206.875,-17.1987,-17.1987
10051,158790,213.475,207.276,-17.2651,-17.2651
10066,159027,213.85,207.676,-17.3098,-17.3098
10081,159264,214.243,208.075,-17.3538,-17.3538
10096,159501,214.646,208.472,-17.3267,-17.3267
10111,159738,215.05,208.871,-17.3609,-17.3609
10126,159975,215.439,209.27,-17.3912,-17.3912
10141,160212,215.835,209.669,-17.41757,-17.41757
10156,160449,216.235,210.069,-17.45144,-17.45144
10171,160686,216.633,210.469,-17.4861,-17.4861
10186,160923,217.013,210.869,-17.5133,-17.5133
10201,161160,217.397,211.267,-17.5526,-17.5526
10216,161397,217.801,211.664,-17.5262,-17.5262
10231,161634,218.205,212.062,-17.5415,-17.5415
10246,161871,218.609,212.461,-17.5744,-17.5744
10261,162108,218.992,212.86,-17.6231,-17.6231
10276,162345,219.388,213.259,-17.6723,-17.6723
10291,162582,219.787,213.66,-17.69081,-17.69081
10306,162819,220.191,214.059,-17.7329,-17.7329
10321,163056,220.594,214.461,-17.79192,-17.79192
10336,163293,220.985,214.865,-17.876,-17.876
10351,163530,221.378,215.268,-17.9443,-17.9443
10366,163767,221.762,215.672,-18.0274,-18.0274
10381,164004,222.158,216.075,-18.0747,-18.0747
10396,164241,222.551,216.479,-18.1153,-18.1153
10411,164478,222.945,216.881,-18.1361,-18.1361
10426,164715,223.329,217.283,-18.12021,-18.12021
10441,164952,223.725,217.683,-18.096,-18.096
10456,165189,224.13,218.083,-18.1151,-18.1151
10471,165426,224.524,218.485,-18.1342,-18.1342
10486,165663,224.914,218.884,-18.1467,-18.1467
10501,165900,225.314,219.285,-18.1523,-18.1523
10516,166137,225.719,219.685,-18.2049,-18.2049
10531,166374,226.096,220.086,-18.2522,-18.2522
10546,166611,226.475,220.484,-18.2723,-18.2723
10561,166848,226.879,220.881,-18.2555,-18.2555
10576,167085,227.289,221.277,-18.1924,-18.1924
10591,167322,227.692,221.675,-18.23639,-18.23639
10606,167559,228.075,222.075,-18.2882,-18.2882
10621,167796,228.464,222.473,-18.34,-18.34
10636,168033,228.867,222.87,-18.3138,-18.3138
10651,168270,229.271,223.269,-18.3469,-18.3469
10666,168507,229.675,223.669,-18.4235,-18.4235
10681,168744,230.07,224.072,-18.50811,-18.50811
10696,168981,230.457,224.474,-18.5628,-18.5628
10711,169218,230.843,224.876,-18.6245,-18.6245
10726,169455,231.23,225.276,-18.6854,-18.6854
10741,169692,231.632,225.676,-18.6955,-18.6955
10756,169929,232.015,226.076,-18.6942,-18.6942
10771,170166,232.41,226.473,-18.65532,-18.65532
10786,170403,232.816,226.871,-18.6244,-18.6244
10801,170640,233.208,227.27,-18.6755,-18.6755
10816,170877,233.6,227.666,-18.6775,-18.6775
10831,171114,233.999,228.063,-18.7059,-18.7059
10846,171351,234.385,228.46,-18.699,-18.699
10861,171588,234.784,228.855,-18.7146,-18.7146
10876,171825,235.189,229.252,-18.7452,-18.7452
10891,172062,235.589,229.649,-18.8104,-18.8104
10906,172299,235.964,230.046,-18.8467,-18.8467
10921,172536,236.353,230.44,-18.8375,-18.8375
10936,172773,236.759,230.833,-18.8072,-18.8072
10951,173010,237.165,231.23,-18.8299,-18.8299
10966,173247,237.567,231.626,-18.8863,-18.8863
10981,173484,237.949,232.024,-18.9649,-18.9649
10996,173721,238.344,232.42,-18.9803,-18.9803
11011,173958,238.747,232.817,-19.0032,-19.0032
11026,174195,239.143,233.215,-19.0381,-19.0381
11041,174432,239.532,233.613,-19.114,-19.114
11056,174669,239.929,234.01,-19.1542,-19.1542
11071,174906,240.328,234.41,-19.2026,-19.2026
11086,175143,240.696,234.806,-19.2373,-19.2373
11101,175380,241.0889,235.2,-19.235,-19.235
11116,175617,241.498,235.594,-19.1999,-19.1999
11131,175854,241.906,235.99,-19.2052,-19.2052
11146,176091,242.308,236.387,-19.282,-19.282
11161,176328,242.694,236.784,-19.3529,-19.3529
11176,176565,243.086,237.182,-19.3891,-19.3891
11191,176802,243.49,237.579,-19.4592,-19.4592
11206,177039,243.894,237.978,-19.5162,-19.5162
11221,177276,244.297,238.38,-19.5765,-19.5765
11236,177513,244.692,238.785,-19.7263,-19.7263
11251,177750,245.051,239.187,-19.7956,-19.7956
11266,177987,245.436,239.585,-19.8089,-19.8089
11281,178224,245.844,239.982,-19.7694,-19.7694
11296,178461,246.256,240.381,-19.7368,-19.7368
11311,178698,246.663,240.782,-19.8241,-19.8241
11326,178935,247.065,241.185,-19.9234,-19.9234
11341,179172,247.442,241.591,-20.0198,-20.0198
11356,179409,247.818,241.992,-20.0843,-20.0843
11371,179646,248.218,242.392,-20.08122,-20.08122
11386,179883,248.629,242.793,-20.1015,-20.1015
11401,180120,249.031,243.196,-20.13624,-20.13624
11416,180357,249.426,243.6,-20.2145,-20.2145
11431,180594,249.819,244.006,-20.2542,-20.2542
11446,180831,250.2,244.411,-20.334,-20.334
11461,181068,250.597,244.815,-20.3764,-20.3764
11476,181305,250.98,245.218,-20.4038,-20.4038
11491,181542,251.355,245.617,-20.4228,-20.4228
11506,181779,251.756,246.013,-20.3367,-20.3367
11521,182016,252.17,246.411,-20.2622,-20.2622
11536,182253,252.577,246.808,-20.2344,-20.2344
11551,182490,252.961,247.209,-20.2784,-20.2784
11566,182727,253.331,247.604,-20.3291,-20.3291
11581,182964,253.733,247.998,-20.2682,-20.2682
11596,183201,254.143,248.3921,-20.24641,-20.24641
11611,183438,254.55,248.789,-20.2661,-20.2661
11626,183675,254.924,249.185,-20.2922,-20.2922
11641,183912,255.315,249.578,-20.285,-20.285
11656,184149,255.719,249.972,-20.2743,-20.2743
11671,184386,256.133,250.366,-20.29692,-20.29692
11686,184623,256.538,250.763,-20.4076,-20.4076
11701,184860,256.939,251.165,-20.5245,-20.5245
11716,185097,257.312,251.566,-20.6819,-20.6819
11731,185334,257.693,251.966,-20.7648,-20.7648
11746,185571,258.095,252.363,-20.7587,-20.7587
11761,185808,258.505,252.763,-20.7244,-20.7244
11776,186045,258.907,253.163,-20.7968,-20.7968
11791,186282,259.285,253.565,-20.9616,-20.9616
11806,186519,259.67,253.964,-21.0121,-21.0121
11821,186756,260.067,254.363,-21.0056,-21.0056
11836,186993,260.467,254.762,-21.0176,-21.0176
11851,187230,260.864,255.162,-21.0494,-21.0494
11866,187467,261.257,255.56,-21.0705,-21.0705
11881,187704,261.639,255.958,-21.0922,-21.0922
11896,187941,262.031,256.354,-21.114,-21.114
11911,188178,262.418,256.748,-21.0956,-21.0956
11926,188415,262.821,257.14,-21.0541,-21.0541
11941,188652,263.223,257.532,-21.0026,-21.0026
11956,188889,263.613,257.926,-21.0063,-21.0063
11971,189126,263.991,258.317,-21.013,-21.013
11986,189363,264.395,258.705,-20.99509,-20.99509
12001,189600,264.805,259.095,-20.9801,-20.9801
12016,189837,265.192,259.486,-21.0109,-21.0109
12031,190074,265.589,259.875,-21.02732,-21.02732
12046,190311,265.993,260.264,-21.0495,-21.0495
12061,190548,266.394,260.656,-21.1427,-21.1427
12076,190785,266.771,261.048,-21.21448,-21.21448
12091,191022,267.165,261.437,-21.2376,-21.2376
12106,191259,267.567,261.826,-21.2238,-21.2238
12121,191496,267.978,262.218,-21.2363,-21.2363
12136,191733,268.363,262.61,-21.3426,-21.3426
12151,191970,268.745,263.001,-21.4143,-21.4143
12166,192207,269.146,263.391,-21.4168,-21.4168
12181,192444,269.554,263.782,-21.436,-21.436
12196,192681,269.945,264.175,-21.5178,-21.5178
12211,192918,270.327,264.566,-21.5776,-21.5776
12226,193155,270.724,264.956,-21.5918,-21.5918
12241,193392,271.132,265.347,-21.6223,-21.6223
12256,193629,271.537,265.741,-21.6966,-21.6966
12271,193866,271.932,266.136,-21.7874,-21.7874
12286,194103,272.322,266.531,-21.8992,-21.8992
12301,194340,272.708,266.926,-21.9818,-21.9818
12316,194577,273.107,267.321,-22.019,-22.019
12331,194814,273.51,267.717,-22.0635,-22.0635
12346,195051,273.893,268.113,-22.1286,-22.1286
12361,195288,274.271,268.507,-22.1741,-22.1741
12376,195525,274.671,268.898,-22.1644,-22.1644
12391,195762,275.076,269.29,-22.1492,-22.1492
12406,195999,275.483,269.684,-22.2051,-22.2051
12421,196236,275.868,270.079,-22.2834,-22.2834
12436,196473,276.26,270.473,-22.3449,-22.3449
12451,196710,276.662,270.866,-22.39086,-22.39086
12466,196947,277.064,271.262,-22.4852,-22.4852
12481,197184,277.446,271.657,-22.618,-22.618
12496,197421,277.844,272.052,-22.7674,-22.7674
12511,197658,278.246,272.446,-22.96085,-22.96085
12526,197895,278.645,272.843,-23.3398,-23.4106
12541,198132,279.022,273.24,-24.3762,-24.2052
12556,198369,279.419,273.633,-29.4683,-24.9917
12571,198606,279.822,274.027,-73.6253,-25.7791
12586,198843,280.223,274.4204,-152.858,-26.5675
12601,199080,280.609,274.81,-232.657,-27.3475
12616,199317,281.01,275.197,-308.773,-28.12113
12631,199554,281.407,275.582,-381.04,-28.8932
12646,199791,281.807,275.969,-450.256,-29.667
12661,200028,282.176,276.352,-516.197,-30.4334
12676,200265,282.575,276.73,-576.761,-31.1907
12691,200502,282.978,277.109,-626.856,-31.9496
12706,200739,283.381,277.488,-674.59,-32.7086
12721,200976,283.768,277.868,-712.245,-33.46915
12736,201213,284.17,278.248,-745.822,-34.2301
12751,201450,284.569,278.629,-765.718,-34.9918
12766,201687,284.97,279.012,-763.876,-35.7589
12781,201924,285.367,279.399,-718.163,-36.5342
12796,202161,285.755,279.791,-620.874,-37.3181
12811,202398,286.148,280.188,-506.567,-38.112
12826,202635,286.533,280.59,-320.829,-38.9171
12841,202872,286.931,280.998,-181.75,-39.734
12856,203109,287.325,281.407,-113.229,-40.5532
12871,203346,287.718,281.817,-79.24433,-41.3741
12886,203583,288.104,282.226,-62.3573,-42.1926
12901,203820,288.51,282.633,-53.8638,-43.0067
12916,204057,288.9,283.04,-49.6071,-43.8208
12931,204294,289.304,283.445,-47.42,-44.633
12946,204531,289.699,283.852,-46.3149,-45.4463
12961,204768,290.093,284.258,-45.7446,-45.7446
12976,205005,290.496,284.662,-45.4214,-45.4214
12991,205242,290.875,285.067,-45.2561,-45.2561
13006,205479,291.261,285.469,-45.1115,-45.1115
13021,205716,291.663,285.868,-44.88926,-44.88926
13036,205953,292.065,286.268,-44.7301,-44.7301
13051,206190,292.444,286.668,-44.6265,-44.6265
13066,206427,292.831,287.064,-44.4821,-44.4821
13081,206664,293.191,287.458,-44.2685,-44.2685
13096,206901,293.191,287.8347,-43.8098,-43.8098
13111,207138,293.181,288.18,-42.5819,-42.5819
13126,207375,293.167,288.492,-40.5019,-40.5019
13141,207612,293.165,288.778,-37.8804,-37.8804
13156,207849,293.146,289.038,-35.0376,-35.0376
13171,208086,293.152,289.271,-32.1327,-32.1327
13186,208323,293.164,289.485,-29.3531,-29.3531
13201,208560,293.157,289.682,-26.8319,-26.8319
13216,208797,293.141,289.858,-24.5179,-24.5179
13231,209034,293.141,290.016,-22.2932,-22.2932
13246,209271,293.147,290.161,-20.22553,-20.22553
13261,209508,293.159,290.294,-18.3977,-18.3977
13276,209745,293.168,290.417,-16.80662,-16.80662
13291,209982,293.161,290.53,-15.4173,-15.4173
13306,210219,293.144,290.631,-14.1469,-14.1469
13321,210456,293.143,290.721,-12.8848,-12.8848
13336,210693,293.156,290.802,-11.6874,-11.6874
13351,210930,293.16,290.879,-10.635,-10.635
13366,211167,293.16,290.949,-9.754204,-9.754204
13381,211404,293.145,291.012,-8.969529,-8.969529
13396,211641,293.139,291.068,-8.168778,-8.168778
13411,211878,293.148,291.117,-7.389436,-7.389436
13426,212115,293.159,291.165,-6.726518,-6.726518
13441,212352,293.162,291.209,-6.180703,-6.180703
13456,212589,293.162,291.251,-5.742118,-5.742118
13471,212826,293.157,291.289,-5.34593,-5.34593
13486,213063,293.138,291.322,-4.944796,-4.944796
13501,213300,293.14,291.35,-4.483743,-4.483743
13516,213537,293.147,291.375,-4.013055,-4.013055
13531,213774,293.151,291.399,-3.619986,-3.619986
13546,214011,293.158,291.422,-3.329413,-3.329413
13561,214248,293.166,291.444,-3.114544,-3.114544
13576,214485,293.155,291.465,-2.958439,-2.958439
13591,214722,293.139,291.482,-2.783173,-2.783173
13606,214959,293.142,291.495,-2.52343,-2.52343
13621,215196,293.154,291.508,-2.23674,-2.23674
13636,215433,293.16,291.522,-2.04526,-2.04526
13651,215670,293.161,291.536,-1.948645,-1.948645
13666,215907,293.143,291.547,-1.87899,-1.87899
13681,216144,293.14,291.556,-1.737812,-1.737812
13696,216381,293.153,291.564,-1.556035,-1.556035
13711,216618,293.161,291.573,-1.421946,-1.421946
13726,216855,293.158,291.583,-1.387895,-1.387895
13741,217092,293.145,291.589,-1.358514,-1.358514
13756,217329,293.139,291.595,-1.256051,-1.256051
13771,217566,293.148,291.599,-1.100897,-1.100897
13786,217803,293.163,291.605,-1.000857,-1.000857
13801,218040,293.157,291.611,-0.99273,-0.99273
13816,218277,293.147,291.616,-1.00551,-1.00551
13831,218514,293.151,291.621,-0.945555,-0.945555
13846,218751,293.157,291.624,-0.890957,-0.890957
13861,218988,293.15,291.629,-0.862792,-0.862792
13876,219225,293.136,291.631,-0.821326,-0.821326
13891,219462,293.144,291.632,-0.715074,-0.715074
13906,219699,293.158,291.634,-0.626963,-0.626963
13921,219936,293.153,291.638,-0.610202,-0.610202
13936,220173,293.141,291.64,-0.633524,-0.633524
13951,220410,293.147,291.64,-0.591024,-0.591024
13966,220647,293.162,291.642,-0.532456,-0.532456
13981,220884,293.151,291.645,-0.552495,-0.552495
13996,221121,293.135,291.645,-0.579964,-0.579964
14011,221358,293.137,291.644,-0.488919,-0.488919
14026,221595,293.145,291.643,-0.383361,-0.383361
14041,221832,293.157,291.643,-0.341725,-0.341725
14056,222069,293.163,291.645,-0.368157,-0.368157
14071,222306,293.159,291.648,-0.441234,-0.441234
14086,222543,293.141,291.65,-0.527614,-0.527614
14101,222780,293.137,291.648,-0.492199,-0.492199
14116,223017,293.143,291.647,-0.382668,-0.382668
14131,223254,293.154,291.646,-0.319265,-0.319265
14146,223491,293.162,291.648,-0.332221,-0.332221
14161,223728,293.16,291.651,-0.40789,-0.40789
14176,223965,293.149,291.653,-0.492024,-0.492024
14191,224202,293.144,291.653,-0.502044,-0.502044
14206,224439,293.139,291.652,-0.437432,-0.437432
14221,224676,293.14,291.65,-0.341723,-0.341723
14236,224913,293.149,291.649,-0.268645,-0.268645
14251,225150,293.145,291.648,-0.252924,-0.252924
14266,225387,293.148,291.646,-0.239794,-0.239794
14281,225624,293.154,291.645,-0.215435,-0.215435
14296,225861,293.159,291.646,-0.24014,-0.24014
14311,226098,293.155,291.648,-0.322892,-0.322892
14326,226335,293.143,291.647,-0.378522,-0.378522
14341,226572,293.143,291.645,-0.341379,-0.341379
14356,226809,293.151,291.645,-0.291969,-0.291969
14371,227046,293.157,291.644,-0.27953,-0.27953
14386,227283,293.159,291.646,-0.311491,-0.311491
14401,227520,293.166,291.649,-0.39908,-0.39908
14416,227757,293.152,291.651,-0.491334,-0.491334
14431,227994,293.136,291.651,-0.529687,-0.529687
14446,228231,293.143,291.65,-0.456955,-0.456955
14461,228468,293.153,291.65,-0.374375,-0.374375
14476,228705,293.154,291.65,-0.351397,-0.351397
14491,228942,293.152,291.651,-0.364354,-0.364354
14506,229179,293.143,291.65,-0.391132,-0.391132
14521,229416,293.148,291.649,-0.356408,-0.356408
14536,229653,293.153,291.649,-0.314427,-0.314427
14551,229890,293.156,291.65,-0.315118,-0.315118
14566,230127,293.155,291.65,-0.362627,-0.362627
14581,230364,293.15,291.651,-0.394933,-0.394933
14596,230601,293.137,291.651,-0.395278,-0.395278
14611,230838,293.141,291.649,-0.325311,-0.325311
14626,231075,293.149,291.648,-0.26329,-0.26329
14641,231312,293.145,291.646,-0.255516,-0.255516
14656,231549,293.15,291.646,-0.237721,-0.237721
14671,231786,293.155,291.645,-0.233748,-0.233748
14686,232023,293.158,291.646,-0.275038,-0.275038
14701,232260,293.147,291.6463,-0.342588,-0.342588
14716,232497,293.142,291.645,-0.342416,-0.342416
14731,232734,293.149,291.644,-0.305963,-0.305963
14746,232971,293.155,291.644,-0.27763,-0.27763
14761,233208,293.16,291.644,-0.30389,-0.30389
14776,233445,293.163,291.647,-0.380077,-0.380077
14791,233682,293.16,291.65,-0.464556,-0.464556
14806,233919,293.148,291.65,-0.532452,-0.532452
14821,234156,293.153,291.652,-0.54178,-0.54178
14836,234393,293.157,291.654,-0.510854,-0.510854
14851,234630,293.163,291.656,-0.541777,-0.541777
14866,234867,293.149,291.659,-0.592221,-0.592221
14881,235104,293.133,291.659,-0.601896,-0.601896
14896,235341,293.138,291.658,-0.489257,-0.489257
14911,235578,293.153,291.657,-0.358132,-0.358132
14926,235815,293.158,291.658,-0.334809,-0.334809
14941,236052,293.154,291.66,-0.389919,-0.389919
14956,236289,293.138,291.659,-0.429136,-0.429136
14971,236526,293.14,291.657,-0.369362,-0.369362
14975,236589.2,293.145,291.656,-0.34794,-0.34794