File: z_unorganized_archive/i_data/water_tests/archive/2015_run1.csv
H2O_20150417,,,,
Creation Date : 3/2/2023 1:21:54 PM,,,,
User : admin,,,,
,,,,
HeatFlow :,,,,
 Initial Mass : 340 mg,,,,
 Molar Mass : N/A,,,,
,,,,
Index,Time(s),Furnace Temperature(K),Sample Temperature(K),HeatFlow(mW)
1,0,293.121,291.555,60.39059
13,189.6,285.72,291.33,60.4052
25,379.2,280.393,290.692,60.4467
37,568.8,275.955,289.746,46.9574
49,758.4,272.093,288.564,24.66384
61,948,268.6782,287.202,15.3668
73,1137.6,265.614,285.705,11.8369
85,1327.2,262.784,284.109,10.7744
97,1516.8,260.105,282.432,10.7121
109,1706.4,257.536,280.692,11.0235
121,1896,255.077,278.902,11.4797
133,2085.6,252.726,277.074,11.8995
145,2275.2,250.482,275.219,12.3165
157,2464.8,248.333,273.348,12.5656
169,2654.4,246.254,271.467,12.9389
181,2844,244.228,269.581,13.332
193,3033.6,242.262,267.695,14.0582
205,3223.2,240.348,265.814,14.6095
217,3412.8,238.484,263.939,14.7092
229,3602.4,236.64,262.074,14.697
241,3792,234.799,260.221,62.9029
253,3981.6,232.967,258.382,63.084
265,4171.2,231.17,256.546,63.2689
277,4360.8,229.409,254.72,31.8924
289,4550.4,227.687,252.907,17.8002
301,4740,225.964,251.108,11.97444
313,4929.6,224.242,249.32,8.926721
325,5119.2,222.521,247.545,7.645664
337,5308.8,220.839,245.783,6.909133
349,5498.4,219.181,244.035,6.910608
361,5688,217.562,242.301,6.478295
373,5877.6,215.924,240.582,6.4411
385,6067.2,214.264,238.875,7.089023
397,6256.8,212.623,237.179,6.769424
409,6446.4,211.015,235.495,6.546651
421,6636,209.443,233.824,6.806302
433,6825.6,207.906,232.167,6.853352
445,7015.2,206.384,230.526,6.87419
457,7204.8,204.844,228.898,6.588288
469,7394.4,203.304,227.284,7.474958
481,7584,201.791,225.681,8.065435
493,7773.6,200.315,224.091,8.098591
505,7963.2,198.875,222.515,8.373095
517,8152.8,197.462,220.956,8.401067
529,8342.4,196.047,219.412,8.115626
541,8532,194.634,217.882,7.860356
553,8721.6,193.249,216.366,7.352005
565,8911.2,191.896,214.865,5.85341
577,9100.8,190.581,213.382,4.419893
589,9290.4,189.309,211.913,3.641593
601,9480,188.027,210.458,3.540051
613,9669.6,186.74,209.022,3.276863
625,9859.2,185.467,207.601,3.501314
637,10048.8,184.224,206.195,3.544844
649,10238.4,183.02,204.804,2.992573
661,10428,181.834,203.43,3.078467
673,10617.6,180.681,202.073,3.413981
685,10807.2,179.491,200.73,3.652044
697,10996.8,178.286,199.402,4.490239
709,11186.4,177.097,198.086,4.489024
721,11376,175.943,196.783,4.222506
733,11565.6,174.827,195.493,3.469703
745,11755.2,173.73,194.217,3.073023
757,11944.8,172.64,192.957,4.401615
769,12134.4,171.559,191.71,4.752101
781,12324,170.501,190.476,4.241579
793,12513.6,169.474,189.258,4.604383
805,12703.2,168.468,188.054,4.826502
817,12892.8,167.49,186.866,5.086221
829,13082.4,166.485,185.693,5.70621
841,13272,165.44,184.531,6.195806
853,13461.6,164.386,183.38,6.382645
865,13651.2,163.357,182.238,5.760276
877,13840.8,162.362,181.106,5.797104
889,14030.4,161.415,179.987,5.786704
901,14220,160.495,178.88,5.668807
913,14409.6,159.594,177.786,4.608382
925,14599.2,158.662,176.707,4.658974
937,14788.8,157.715,175.636,5.062612
949,14978.4,156.77,174.577,5.536328
961,15168,155.859,173.528,5.337524
973,15357.6,154.982,172.489,4.964264
985,15547.2,154.138,171.462,5.47784
997,15736.8,153.338,170.449,4.84971
1009,15926.4,152.539,169.451,4.936722
1021,16116,151.696,168.464,5.704428
1033,16305.6,150.833,167.488,5.794859
1045,16495.2,149.985,166.519,6.217227
1057,16684.8,149.173,165.561,5.833404
1069,16874.4,148.399,164.614,5.443163
1081,17064,147.658,163.679,5.008944
1093,17253.6,146.956,162.758,5.247307
1105,17443.2,146.234,161.849,5.745395
1117,17632.8,145.479,160.952,5.728252
1129,17822.4,144.715,160.065,5.729912
1141,18012,143.97,159.186,5.321101
1153,18201.6,143.254,158.317,5.774597
1165,18391.2,142.582,157.46,5.191919
1177,18580.8,141.936,156.614,4.829265
1189,18770.4,141.321,155.782,5.212778
1201,18960,140.67,154.961,5.216328
1213,19149.6,139.983,154.15,5.533823
1225,19339.2,139.289,153.348,5.298786
1237,19528.8,138.618,152.553,4.980167
1249,19718.4,137.976,151.767,4.999633
1261,19908,137.365,150.99,5.277197
1273,20097.6,136.802,150.225,5.431996
1285,20287.2,136.246,149.472,4.86139
1297,20476.8,135.679,148.731,4.795251
1309,20666.4,135.112,147.999,4.67002
1321,20856,134.56,147.278,4.69704
1333,21045.6,134.035,146.569,4.486133
1345,21235.2,133.536,145.87,4.772267
1357,21424.8,133.061,145.184,4.73587
1369,21614.4,132.563,144.508,4.858174
1381,21804,132.042,143.843,4.809536
1393,21993.6,131.517,143.187,4.532707
1405,22183.2,131.007,142.538,4.322868
1417,22372.8,130.522,141.898,4.233077
1429,22562.4,130.063,141.268,4.48011
1441,22752,129.645,140.649,4.89697
1453,22941.6,129.235,140.041,4.36867
1465,23131.2,128.825,139.445,3.650014
1477,23320.8,128.421,138.86,3.632502
1489,23510.4,128.031,138.283,3.905271
1501,23700,127.664,137.72,4.012467
1513,23889.6,127.315,137.169,3.778619
1525,24079.2,126.976,136.627,3.445492
1537,24268.8,126.642,136.098,3.502039
1549,24458.4,126.318,135.58,3.493441
1561,24648,125.977,135.071,3.399331
1573,24837.6,125.588,134.572,3.45758
1585,25027.2,125.169,134.078,3.527818
1597,25216.8,124.745,133.588,3.432185
1609,25406.4,124.333,133.103,3.348498
1621,25596,123.945,132.622,3.193553
1633,25785.6,123.581,132.147,3.073717
1645,25975.2,123.257,131.679,3.160414
1657,26164.8,122.939,131.22,3.158788
1669,26354.4,122.619,130.769,2.866545
1681,26544,122.304,130.325,2.664957
1693,26733.6,121.997,129.888,2.790513
1705,26923.2,121.666,129.457,2.684333
1717,27112.8,121.294,129.031,2.784182
1729,27302.4,120.891,128.608,2.876664
1741,27492,120.492,128.186,2.806072
1753,27681.6,120.109,127.765,2.880471
1765,27871.2,119.754,127.348,2.767255
1777,28060.8,119.436,126.935,2.96035
1789,28250.4,119.149,126.528,2.796567
1801,28440,118.886,126.129,2.568618
1813,28629.6,118.627,125.737,2.420619
1825,28819.2,118.3552,125.352,2.502693
1837,29008.8,118.08,124.973,2.387754
1849,29198.4,117.815,124.6,2.284249
1861,29388,117.565,124.233,2.326617
1873,29577.6,117.317,123.873,2.251524
1885,29767.2,117.036,123.518,1.973722
1897,29956.8,116.725,123.166,2.044483
1909,30146.4,116.402,122.816,2.071284
1921,30336,116.085,122.468,2.11028
1933,30525.6,115.788,122.123,2.001646
1945,30715.2,115.516,121.78,2.082082
1957,30904.8,115.281,121.443,1.903294
1969,31094.4,115.07,121.112,1.77285
1981,31284,114.874,120.788,1.887824
1993,31473.6,114.655,120.469,1.747103
2005,31663.2,114.406,120.156,1.823626
2017,31852.8,114.151,119.846,1.904
2029,32042.4,113.905,119.54,1.75035
2041,32232,113.679,119.237,1.594843
2053,32421.6,113.472,118.939,1.890691
2065,32611.2,113.259,118.646,1.746583
2077,32800.8,113.036,118.356,1.645785
2089,32990.4,112.815,118.071,1.50028
2101,33180,112.589,117.789,1.549252
2113,33369.6,112.367,117.51,1.440922
2125,33559.2,112.151,117.234,1.481594
2137,33748.8,111.92,116.961,1.362307
2149,33938.4,111.668,116.69,1.500612
2161,34128,111.414,116.42,1.357189
2173,34317.6,111.171,116.151,1.258735
2185,34507.2,110.954,115.885,1.261382
2197,34696.8,110.762,115.621,1.335112
2209,34886.4,110.574,115.362,1.445794
2221,35076,110.347,115.105,1.446562
2233,35265.6,110.085,114.848,1.381753
2245,35455.2,109.812,114.591,1.325124
2257,35644.8,109.551,114.333,1.392644
2269,35834.4,109.311,114.076,1.341534
2281,36024,109.096,113.821,1.421421
2293,36213.6,108.897,113.568,1.397204
2305,36403.2,108.677,113.318,1.30804
2317,36592.8,108.424,113.068,1.304733
2329,36782.4,108.151,112.817,1.348774
2341,36972,107.88,112.566,1.365854
2353,37161.6,107.625,112.313,1.386624
2365,37351.2,107.393,112.061,1.301285
2377,37540.8,107.192,111.811,1.400159
2389,37730.4,107.005,111.564,1.337237
2401,37920,106.802,111.319,1.215216
2413,38109.6,106.582,111.077,1.269682
2425,38299.2,106.355,110.835,1.345221
2437,38488.8,106.138,110.595,1.296911
2449,38678.4,105.939,110.356,1.295412
2461,38868,105.763,110.121,1.211066
2473,39057.6,105.584,109.887,1.158685
2485,39247.2,105.389,109.657,1.234223
2497,39436.8,105.184,109.428,1.212106
2509,39626.4,104.986,109.201,1.132774
2521,39816,104.802,108.976,1.082314
2533,40005.6,104.637,108.753,1.117497
2545,40195.2,104.464,108.534,0.971518
2557,40384.8,104.262,108.315,0.988553
2569,40574.4,104.038,108.096,1.050489
2581,40764,103.807,107.878,1.049321
2593,40953.6,103.586,107.66,1.081146
2605,41143.2,103.382,107.441,1.073934
2617,41332.8,103.198,107.224,1.115511
2629,41522.4,103.029,107.009,1.10527
2641,41712,102.84,106.796,1.072708
2653,41901.6,102.619,106.583,1.039115
2665,42091.2,102.376,106.369,1.036122
2677,42280.8,102.137,106.153,0.936341
2689,42470.4,101.912,105.938,0.914259
2701,42660,101.708,105.721,0.955594
2713,42849.6,101.527,105.505,0.96391
2725,43039.2,101.361,105.293,1.030617
2737,43228.8,101.187,105.082,1.078787
2749,43418.4,101.004,104.873,0.992832
2761,43608,100.815,104.665,0.99649
2773,43797.6,100.633,104.459,0.918307
2785,43987.2,100.465,104.254,0.96736
2797,44176.8,100.315,104.052,0.959136
2809,44366.4,100.171,103.853,0.933915
2821,44556,100.022,103.657,0.908448
2833,44745.6,99.8697,103.462,0.910449
2845,44935.2,99.7227,103.27,0.884582
2857,45124.8,99.5867,103.081,0.931355
2869,45314.4,99.4625,102.895,0.886994
2881,45504,99.3287,102.713,0.805086
2893,45693.6,99.1601,102.532,0.848239
2905,45883.2,98.9689,102.35,0.794428
2917,46072.8,98.7723,102.168,0.83163
2929,46262.4,98.5836,101.985,0.836616
2941,46452,98.4096,101.803,0.890563
2953,46641.6,98.2546,101.622,0.871902
2965,46831.2,98.1125,101.442,0.814867
2977,47020.8,97.9523,101.264,0.789558
2989,47210.4,97.767,101.087,0.75422
3001,47400,97.5689,100.907,0.77011
3013,47589.6,97.3754,100.728,0.77804
3025,47779.2,97.1946,100.548,0.82265
3037,47968.8,97.0328,100.369,0.797402
3049,48158.4,96.88967,100.19,0.813888
3061,48348,96.7507,100.013,0.782051
3073,48537.6,96.5816,99.8382,0.72999
3085,48727.2,96.3846,99.6629,0.74743
3097,48916.8,96.1784,99.4851,0.761976
3109,49106.4,95.9803,99.3063,0.729415
3121,49296,95.79563,99.1279,0.754178
3133,49485.6,95.6312,98.9487,0.762089
3145,49675.2,95.4839,98.7709,0.742424
3157,49864.8,95.3365,98.5947,0.70022
3169,50054.4,95.16741,98.4199,0.71353
3181,50244,94.9782,98.2443,0.75621
3193,50433.6,94.7835,98.0687,0.785791
3205,50623.2,94.59371,97.8917,0.772923
3217,50812.8,94.41738,97.7141,0.734932
3229,51002.4,94.2571,97.5361,0.709202
3241,51192,94.1168,97.3608,0.709644
3253,51381.6,93.9905,97.1869,0.73564
3265,51571.2,93.8701,97.0161,0.749714
3277,51760.8,93.7491,96.8481,0.707168
3289,51950.4,93.6166,96.6823,0.662821
3301,52140,93.4827,96.5179,0.630234
3313,52329.6,93.339,96.3552,0.613405
3325,52519.2,93.1922,96.1929,0.657754
3337,52708.8,93.051,96.032,0.614934
3349,52898.4,92.9205,95.873,0.623352
3361,53088,92.79595,95.7149,0.612681
3373,53277.6,92.6607,95.5594,0.621964
3385,53467.2,92.5064,95.4037,0.61348
3397,53656.8,92.3392,95.248,0.604014
3409,53846.4,92.17327,95.0913,0.588346
3421,54036,92.0169,94.9352,0.599669
3433,54225.6,91.8729,94.7794,0.601501
3445,54415.2,91.744,94.6233,0.589971
3457,54604.8,91.62583,94.4695,0.616277
3469,54794.4,91.5045,94.3176,0.607001
3481,54984,91.3724,94.1667,0.593113
3493,55173.6,91.2348,94.0168,0.571201
3505,55363.2,91.1025,93.86843,0.572475
3517,55552.8,90.9814,93.7204,0.541243
3529,55742.4,90.8727,93.575,0.527151
3541,55932,90.7666,93.4302,0.544059
3553,56121.6,90.6502,93.2878,0.53274
3565,56311.2,90.5213,93.1469,0.510921
3577,56500.8,90.3858,93.0067,0.496478
3589,56690.4,90.2535,92.8674,0.504064
3601,56880,90.1295,92.7277,0.50052
3613,57069.6,90.0198,92.5893,0.488839
3625,57259.2,89.9223,92.4531,0.491297
3637,57448.8,89.8297,92.3184,0.468784
3649,57638.4,89.7254,92.1867,0.466249
3661,57828,89.6074,92.0558,0.453037
3673,58017.6,89.4831,91.92623,0.450805
3685,58207.2,89.36048,91.7957,0.4622
3697,58396.8,89.24552,91.6667,0.487491
3709,58586.4,89.1424,91.5381,0.491255
3721,58776,89.0504,91.4112,0.454813
3733,58965.6,88.9591,91.2864,0.462534
3745,59155.2,88.8583,91.16355,0.458619
3757,59344.8,88.7495,91.0418,0.461876
3769,59534.4,88.6371,90.92,0.443366
3781,59724,88.5307,90.7998,0.448361
3793,59913.6,88.434,90.6791,0.459323
3805,60103.2,88.3465,90.5611,0.454703
3817,60292.8,88.263,90.4444,0.416528
3829,60482.4,88.1702,90.329,0.427262
3841,60672,88.0693,90.2153,0.423087
3853,60861.6,87.9648,90.1029,0.43119
3865,61051.2,87.8635,89.9906,0.431672
3877,61240.8,87.7666,89.8793,0.420189
3889,61430.4,87.6784,89.7679,0.412903
3901,61620,87.6002,89.6581,0.434771
3913,61809.6,87.53208,89.5511,0.418304
3925,61999.2,87.4625,89.4456,0.40834
3937,62188.8,87.3837,89.3422,0.415266
3949,62378.4,87.2996,89.2401,0.44927
3961,62568,87.2155,89.1395,0.429554
3973,62757.6,87.13671,89.0388,0.40344
3985,62947.2,87.065,88.9405,0.401672
3997,63136.8,87.0025,88.8438,0.415282
4009,63326.4,86.9456,88.7488,0.418568
4021,63516,86.8821,88.6554,0.407993
4033,63705.6,86.8059,88.5641,0.410953
4045,63895.2,86.72489,88.473,0.420424
4057,64084.8,86.64,88.383,0.407026
4069,64274.4,86.5583,88.2931,0.409476
4081,64464,86.4838,88.2043,0.409976
4093,64653.6,86.4193,88.1155,0.407712
4105,64843.2,86.3634,88.0286,0.399201
4117,65032.8,86.30744,87.9435,0.39231
4129,65222.4,86.2414,87.8608,0.383204
4141,65412,86.1666,87.7772,0.368438
4153,65601.6,86.09191,87.6947,0.361143
4165,65791.2,86.0219,87.6128,0.35406
4177,65980.8,85.9603,87.532,0.363131
4189,66170.4,85.9064,87.4523,0.363951
4201,66360,85.8568,87.37348,0.36167
4213,66549.6,85.8019,87.2974,0.35303
4225,66739.2,85.73931,87.2217,0.346523
4237,66928.8,85.6754,87.1472,0.34139
4249,67118.4,85.6151,87.0734,0.340331
4261,67308,85.56,86.9998,0.343128
4273,67497.6,85.5114,86.9278,0.342328
4285,67687.2,85.4645,86.8574,0.349896
4297,67876.8,85.399,86.7879,0.335285
4309,68066.4,85.3246,86.7182,0.33192
4321,68256,85.2474,86.6485,0.334619
4333,68445.6,85.1714,86.5785,0.350866
4345,68635.2,85.1044,86.5078,0.34653
4357,68824.8,85.0469,86.4377,0.339043
4369,69014.4,84.9977,86.3686,0.330294
4381,69204,84.953,86.3008,0.32809
4393,69393.6,84.9015,86.2347,0.325304
4405,69583.2,84.8428,86.1681,0.330617
4417,69772.8,84.7775,86.103,0.32637
4429,69962.4,84.7105,86.0376,0.327305
4441,70152,84.6464,85.9719,0.326172
4453,70341.6,84.5883,85.9062,0.324563
4465,70531.2,84.5391,85.8418,0.333292
4477,70720.8,84.4981,85.7774,0.33623
4489,70910.4,84.4584,85.7152,0.323064
4501,71100,84.4112,85.6536,0.316497
4513,71289.6,84.3573,85.5936,0.314859
4525,71479.2,84.2985,85.5328,0.316869
4537,71668.8,84.2404,85.4727,0.324134
4549,71858.4,84.186,85.4129,0.314923
4561,72048,84.1363,85.3538,0.311193
4573,72237.6,84.0939,85.2945,0.307728
4585,72427.2,84.0585,85.2365,0.305248
4597,72616.8,84.0227,85.1796,0.305545
4609,72806.4,83.9844,85.1245,0.306327
4621,72996,83.9361,85.0701,0.302914
4633,73185.6,83.8858,85.0157,0.299445
4645,73375.2,83.8358,84.9623,0.302313
4657,73564.8,83.7902,84.9081,0.307448
4669,73754.4,83.7497,84.8551,0.297026
4681,73944,83.7162,84.8027,0.292207
4693,74133.6,83.689,84.7515,0.290448
4705,74323.2,83.6677,84.7013,0.285601
4717,74512.8,83.64614,84.6533,0.279666
4729,74702.4,83.6206,84.607,0.280555
4741,74892,83.5923,84.5613,0.281702
4753,75081.6,83.5628,84.51647,0.272022
4765,75271.2,83.5353,84.4734,0.267587
4777,75460.8,83.5077,84.4309,0.263615
4789,75650.4,83.4746,84.3881,0.259783
4801,75840,83.4338,84.3476,0.274666
4813,76029.6,83.3886,84.3053,0.261559
4825,76219.2,83.342,84.2634,0.260972
4837,76408.8,83.2982,84.2222,0.2605
4849,76598.4,83.2598,84.18064,0.270267
4861,76788,83.2275,84.1384,0.269163
4873,76977.6,83.2013,84.098,0.265954
4885,77167.2,83.1792,84.0576,0.257016
4897,77356.8,83.1582,84.0185,0.253365
4909,77546.4,83.1396,83.98107,0.249889
4921,77736,83.121,83.944,0.245626
4933,77925.6,83.09754,83.9083,0.244243
4945,78115.2,83.06629,83.8727,0.246087
4957,78304.8,83.0295,83.8371,0.242467
4969,78494.4,82.9914,83.8026,0.240424
4981,78684,82.9552,83.76644,0.243213
4993,78873.6,82.9238,83.7315,0.251169
5005,79063.2,82.8982,83.6965,0.241849
5017,79252.8,82.8781,83.6622,0.241021
5029,79442.4,82.8605,83.6287,0.238028
5041,79632,82.8413,83.5964,0.235109
5053,79821.6,82.8187,83.5641,0.234193
5065,80011.2,82.794,83.5335,0.244003
5077,80200.8,82.7702,83.50231,0.232407
5089,80390.4,82.7502,83.4717,0.229097
5101,80580,82.7339,83.4419,0.227004
5113,80769.6,82.9133,83.4152,0.20691
5125,80959.2,83.3973,83.4072,0.15996
5137,81148.8,83.8998,83.4262,0.071317
5149,81338.4,84.3163,83.4692,-0.003242
5161,81528,84.6655,83.5322,-0.068875
5173,81717.6,84.9859,83.6117,-0.11551
5185,81907.2,85.2995,83.7043,-0.171929
5197,82096.8,85.6139,83.8102,-0.2219
5209,82286.4,85.9318,83.9276,-0.262348
5221,82476,86.2472,84.0572,-0.299903
5233,82665.6,86.5612,84.1977,-0.337369
5245,82855.2,86.8745,84.3474,-0.362308
5257,83044.8,87.1913,84.5076,-0.402119
5269,83234.4,87.5096,84.6761,-0.434035
5281,83424,87.8291,84.8533,-0.467038
5293,83613.6,88.1486,85.0387,-0.492427
5305,83803.2,88.4671,85.232,-0.508388
5317,83992.8,88.78562,85.4314,-0.525526
5329,84182.4,89.10108,85.6379,-0.557986
5341,84372,89.41062,85.8498,-0.581405
5353,84561.6,89.72399,86.0679,-0.602386
5365,84751.2,90.0407,86.2905,-0.620378
5377,84940.8,90.3622,86.5181,-0.635715
5389,85130.4,90.6806,86.7521,-0.65888
5401,85320,90.9999,86.9886,-0.676819
5413,85509.6,91.318,87.23,-0.693025
5425,85699.2,91.63439,87.476,-0.704765
5437,85888.8,91.9475,87.72579,-0.714199
5449,86078.4,92.2632,87.9783,-0.725785
5461,86268,92.5778,88.2338,-0.743429
5473,86457.6,92.8946,88.4921,-0.755206
5485,86647.2,93.2127,88.75379,-0.769747
5497,86836.8,93.5307,89.0176,-0.773599
5509,87026.4,93.8485,89.2846,-0.784989
5521,87216,94.16387,89.553,-0.789207
5533,87405.6,94.4775,89.8233,-0.790501
5545,87595.2,94.7901,90.0964,-0.80989
5557,87784.8,95.1071,90.3706,-0.820079
5569,87974.4,95.4266,90.647,-0.832068
5581,88164,95.7444,90.9248,-0.838823
5593,88353.6,96.063,91.205,-0.843027
5605,88543.2,96.3808,91.487,-0.850853
5617,88732.8,96.6963,91.7693,-0.857841
5629,88922.4,97.0091,92.0535,-0.864202
5641,89112,97.3239,92.3382,-0.861269
5653,89301.6,97.6406,92.6245,-0.868438
5665,89491.2,97.9591,92.91059,-0.882491
5677,89680.8,98.27735,93.1987,-0.891965
5689,89870.4,98.5944,93.488,-0.894954
5701,90060,98.9044,93.7789,-0.903427
5713,90249.6,99.2175,94.0702,-0.909079
5725,90439.2,99.5346,94.3617,-0.913182
5737,90628.8,99.8537,94.6543,-0.915024
5749,90818.4,100.172,94.9473,-0.919741
5761,91008,100.488,95.2419,-0.926154
5773,91197.6,100.803,95.5363,-0.925879
5785,91387.2,101.121,95.8311,-0.925571
5797,91576.8,101.441,96.1273,-0.930826
5809,91766.4,101.759,96.4246,-0.936615
5821,91956,102.073,96.7215,-0.939979
5833,92145.6,102.372,97.0189,-0.955032
5845,92335.2,102.683,97.3167,-0.956564
5857,92524.8,103.001,97.6144,-0.958607
5869,92714.4,103.324,97.9128,-0.962854
5881,92904,103.646,98.2115,-0.963081
5893,93093.6,103.97,98.5112,-0.960281
5905,93283.2,104.292,98.8122,-0.961115
5917,93472.8,104.606,99.1129,-0.965941
5929,93662.4,104.917,99.4145,-0.967289
5941,93852,105.229,99.7173,-0.974056
5953,94041.6,105.546,100.019,-0.978504
5965,94231.2,105.865,100.321,-0.98482
5977,94420.8,106.184,100.623,-0.993756
5989,94610.4,106.503,100.927,-0.992029
6001,94800,106.813,101.23,-1.000751
6013,94989.6,107.122,101.532,-1.003226
6025,95179.2,107.437,101.836,-1.005022
6037,95368.8,107.757,102.14,-1.008057
6049,95558.4,108.077,102.444,-1.01293
6061,95748,108.396,102.749,-1.014982
6073,95937.6,108.711,103.055,-1.016688
6085,96127.2,109.023,103.36,-1.020585
6097,96316.8,109.339,103.665,-1.023657
6109,96506.4,109.657,103.971,-1.029148
6121,96696,109.975,104.278,-1.032035
6133,96885.6,110.293,104.584,-1.035083
6145,97075.2,110.6,104.89,-1.039858
6157,97264.8,110.896,105.196,-1.044261
6169,97454.4,111.209,105.5,-1.039995
6181,97644,111.534,105.807,-1.037255
6193,97833.6,111.861,106.112,-1.034249
6205,98023.2,112.187,106.419,-1.032835
6217,98212.8,112.509,106.726,-1.041922
6229,98402.4,112.827,107.034,-1.038563
6241,98592,113.137,107.342,-1.043659
6253,98781.6,113.449,107.65,-1.048409
6265,98971.2,113.765,107.957,-1.053248
6277,99160.8,114.083,108.266,-1.048055
6289,99350.4,114.387,108.575,-1.061535
6301,99540,114.691,108.882,-1.063408
6313,99729.6,115.008,109.189,-1.060836
6325,99919.2,115.332,109.497,-1.060814
6337,100108.8,115.657,109.804,-1.06009
6349,100298.4,115.979,110.113,-1.064837
6361,100488,116.304,110.422,-1.05867
6373,100677.6,116.624,110.732,-1.060584
6385,100867.2,116.931,111.042,-1.067998
6397,101056.8,117.233,111.352,-1.070147
6409,101246.4,117.543,111.661,-1.066452
6421,101436,117.862,111.97,-1.063761
6433,101625.6,118.186,112.279,-1.065771
6445,101815.2,118.508,112.589,-1.068753
6457,102004.8,118.828,112.9,-1.078438
6469,102194.4,119.15,113.21,-1.077705
6481,102384,119.462,113.522,-1.080271
6493,102573.6,119.772,113.833,-1.082435
6505,102763.2,120.087,114.144,-1.083694
6517,102952.8,120.406,114.457,-1.089871
6529,103142.4,120.723,114.769,-1.096853
6541,103332,121.041,115.082,-1.095463
6553,103521.6,121.349,115.395,-1.100567
6565,103711.2,121.652,115.706,-1.101076
6577,103900.8,121.965,116.017,-1.099841
6589,104090.4,122.287,116.328,-1.10078
6601,104280,122.611,116.64,-1.099662
6613,104469.6,122.937,116.952,-1.095017
6625,104659.2,123.259,117.266,-1.092254
6637,104848.8,123.569,117.58,-1.094761
6649,105038.4,123.868,117.892,-1.099377
6661,105228,124.174,118.204,-1.099653
6673,105417.6,124.492,118.514,-1.096631
6685,105607.2,124.816,118.825,-1.095931
6697,105796.8,125.143,119.138,-1.096115
6709,105986.4,125.465,119.45,-1.1063
6721,106176,125.788,119.763,-1.107689
6733,106365.6,126.102,120.078,-1.1129
6745,106555.2,126.415,120.393,-1.11502
6757,106744.8,126.729,120.708,-1.118114
6769,106934.4,127.045,121.023,-1.119216
6781,107124,127.358,121.339,-1.116696
6793,107313.6,127.673,121.654,-1.117414
6805,107503.2,127.99,121.97,-1.114534
6817,107692.8,128.308,122.286,-1.114641
6829,107882.4,128.626,122.602,-1.120039
6841,108072,128.943,122.918,-1.129814
6853,108261.6,129.26,123.235,-1.134806
6865,108451.2,129.574,123.553,-1.136125
6877,108640.8,129.889,123.87,-1.1385
6889,108830.4,130.205,124.189,-1.137835
6901,109020,130.516,124.507,-1.137608
6913,109209.6,130.828,124.823,-1.138432
6925,109399.2,131.143,125.141,-1.13779
6937,109588.8,131.463,125.459,-1.137953
6949,109778.4,131.785,125.776,-1.140235
6961,109968,132.105,126.094,-1.139368
6973,110157.6,132.415,126.413,-1.143931
6985,110347.2,132.718,126.731,-1.144344
6997,110536.8,133.026,127.047,-1.142074
7009,110726.4,133.344,127.362,-1.141517
7021,110916,133.669,127.678,-1.133998
7033,111105.6,133.993,127.994,-1.130024
7045,111295.2,134.314,128.311,-1.12479
7057,111484.8,134.627,128.628,-1.128082
7069,111674.4,134.94,128.945,-1.13134
7081,111864,135.254,129.262,-1.129862
7093,112053.6,135.572,129.579,-1.137205
7105,112243.2,135.882,129.896,-1.139093
7117,112432.8,136.195,130.212,-1.139828
7129,112622.4,136.512,130.528,-1.136486
7141,112812,136.834,130.844,-1.133024
7153,113001.6,137.154,131.161,-1.127109
7165,113191.2,137.47,131.477,-1.128612
7177,113380.8,137.777,131.794,-1.130573
7189,113570.4,138.085,132.109,-1.131265
7201,113760,138.399,132.425,-1.134287
7213,113949.6,138.721,132.738,-1.13176
7225,114139.2,139.043,133.054,-1.132238
7237,114328.8,139.367,133.369,-1.140663
7249,114518.4,139.687,133.686,-1.140025
7261,114708,139.997,134.002,-1.140869
7273,114897.6,140.302,134.318,-1.139089
7285,115087.2,140.612,134.632,-1.139618
7297,115276.8,140.932,134.947,-1.137993
7309,115466.4,141.255,135.261,-1.129303
7321,115656,141.577,135.577,-1.130637
7333,115845.6,141.892,135.894,-1.133216
7345,116035.2,142.201,136.209,-1.1351
7357,116224.8,142.513,136.524,-1.134074
7369,116414.4,142.832,136.838,-1.129187
7381,116604,143.152,137.153,-1.123675
7393,116793.6,143.471,137.469,-1.120704
7405,116983.2,143.784,137.784,-1.11877
7417,117172.8,144.096,138.098,-1.121225
7429,117362.4,144.414,138.415,-1.119139
7441,117552,144.731,138.73,-1.121212
7453,117741.6,145.045,139.045,-1.121415
7465,117931.2,145.36,139.36,-1.11704
7477,118120.8,145.679,139.676,-1.11484
7489,118310.4,146,139.991,-1.110583
7501,118500,146.317,140.308,-1.111287
7513,118689.6,146.623,140.623,-1.111624
7525,118879.2,146.932,140.938,-1.110667
7537,119068.8,147.247,141.253,-1.110028
7549,119258.4,147.569,141.567,-1.107133
7561,119448,147.891,141.882,-1.114263
7573,119637.6,148.214,142.198,-1.104729
7585,119827.2,148.525,142.515,-1.105076
7597,120016.8,148.837,142.83,-1.101858
7609,120206.4,149.152,143.145,-1.099298
7621,120396,149.469,143.461,-1.095191
7633,120585.6,149.781,143.776,-1.099177
7645,120775.2,150.089,144.091,-1.092026
7657,120964.8,150.406,144.406,-1.087718
7669,121154.4,150.7274,144.7199,-1.083758
7681,121344,151.053,145.035,-1.084686
7693,121533.6,151.373,145.3515,-1.080034
7705,121723.2,151.685,145.667,-1.080417
7717,121912.8,151.992,145.982,-1.08045
7729,122102.4,152.305,146.297,-1.077445
7741,122292,152.623,146.612,-1.067798
7753,122481.6,152.9457,146.927,-1.071679
7765,122671.2,153.27,147.242,-1.06744
7777,122860.8,153.59,147.559,-1.064407
7789,123050.4,153.901,147.877,-1.058908
7801,123240,154.207,148.193,-1.054967
7813,123429.6,154.52,148.508,-1.044102
7825,123619.2,154.839,148.824,-1.037805
7837,123808.8,155.16,149.14,-1.031171
7849,123998.4,155.477,149.457,-1.023606
7861,124188,155.792,149.773,-1.017496
7873,124377.6,156.107,150.09,-1.014638
7885,124567.2,156.419,150.405,-1.00954
7897,124756.8,156.733,150.722,-1.007887
7909,124946.4,157.052,151.038,-0.998843
7921,125136,157.372,151.354,-0.989245
7933,125325.6,157.69,151.672,-0.995024
7945,125515.2,157.997,151.988,-0.985137
7957,125704.8,158.303,152.304,-0.983209
7969,125894.4,158.616,152.618,-0.989132
7981,126084,158.938,152.932,-0.984029
7993,126273.6,159.263,153.247,-0.964463
8005,126463.2,159.59,153.562,-0.958319
8017,126652.8,159.908,153.879,-0.959469
8029,126842.4,160.217,154.196,-0.964702
8041,127032,160.53,154.513,-0.963586
8053,127221.6,160.847,154.828,-0.948182
8065,127411.2,161.167,155.145,-0.937494
8077,127600.8,161.478,155.461,-0.942946
8089,127790.4,161.774,155.777,-0.957794
8101,127980,162.076,156.09,-0.952797
8113,128169.6,162.394,156.401,-0.931104
8125,128359.2,162.724,156.713,-0.910948
8137,128548.8,163.055,157.026,-0.904896
8149,128738.4,163.377,157.34,-0.902406
8161,128928,163.68,157.654,-0.892766
8173,129117.6,163.978,157.966,-0.90169
8185,129307.2,164.295,158.276,-0.893017
8197,129496.8,164.625,158.587,-0.88269
8209,129686.4,164.956,158.899,-0.868654
8221,129876,165.275,159.212,-0.858714
8233,130065.6,165.579,159.524,-0.86526
8245,130255.2,165.888,159.837,-0.859577
8257,130444.8,166.209,160.149,-0.835774
8269,130634.4,166.536,160.462,-0.82578
8281,130824,166.858,160.776,-0.830089
8293,131013.6,167.158,161.09,-0.827333
8305,131203.2,167.449,161.4,-0.828634
8317,131392.8,167.757,161.71,-0.830537
8329,131582.4,168.083,162.018,-0.836998
8341,131772,168.415,162.328,-0.842764
8353,131961.6,168.745,162.638,-0.835667
8365,132151.2,169.07,162.951,-0.827945
8377,132340.8,169.368,163.263,-0.800642
8389,132530.4,169.667,163.574,-0.803771
8401,132720,169.98,163.883,-0.79012
8413,132909.6,170.306,164.191,-0.803036
8425,133099.2,170.637,164.502,-0.801532
8437,133288.8,170.962,164.813,-0.795704
8449,133478.4,171.267,165.125,-0.778314
8461,133668,171.57,165.435,-0.770252
8473,133857.6,171.884,165.744,-0.782722
8485,134047.2,172.208,166.054,-0.75448
8497,134236.8,172.536,166.366,-0.771158
8509,134426.4,172.86,166.678,-0.749405
8521,134616,173.172,166.991,-0.745292
8533,134805.6,173.473,167.303,-0.723962
8545,134995.2,173.779,167.614,-0.731331
8557,135184.8,174.1,167.924,-0.728696
8569,135374.4,174.43,168.235,-0.699517
8581,135564,174.755,168.548,-0.688325
8593,135753.6,175.067,168.861,-0.718562
8605,135943.2,175.364,169.173,-0.715201
8617,136132.8,175.675,169.485,-0.718943
8629,136322.4,176,169.795,-0.705518
8641,136512,176.3273,170.108,-0.715437
8653,136701.6,176.651,170.421,-0.701345
8665,136891.2,176.974,170.735,-0.7029
8677,137080.8,177.29,171.051,-0.700211
8689,137270.4,177.597,171.366,-0.62894
8701,137460,177.906,171.681,-0.599002
8713,137649.6,178.226,171.994,-0.603041
8725,137839.2,178.544,172.31,-0.616787
8737,138028.8,178.855,172.626,-0.627579
8749,138218.4,179.167,172.94,-0.60363
8761,138408,179.486,173.254,-0.635848
8773,138597.6,179.81,173.57,-0.623442
8785,138787.2,180.124,173.885,-0.626136
8797,138976.8,180.423,174.2,-0.600806
8809,139166.4,180.733,174.513,-0.618971
8821,139356,181.054,174.827,-0.597759
8833,139545.6,181.384,175.141,-0.584148
8845,139735.2,181.706,175.455,-0.572029
8857,139924.8,182.022,175.771,-0.593829
8869,140114.4,182.331,176.086,-0.605142
8881,140304,182.644,176.4,-0.613547
8893,140493.6,182.964,176.716,-0.630558
8905,140683.2,183.284,177.032,-0.601314
8917,140872.8,183.595,177.347,-0.574235
8929,141062.4,183.89,177.661,-0.606384
8941,141252,184.193,177.973,-0.592214
8953,141441.6,184.511,178.286,-0.558506
8965,141631.2,184.839,178.597,-0.560395
8977,141820.8,185.171,178.91,-0.553228
8989,142010.4,185.492,179.225,-0.519147
9001,142200,185.819,179.54,-0.553081
9013,142389.6,186.122,179.856,-0.541141
9025,142579.2,186.425,180.17,-0.536272
9037,142768.8,186.742,180.483,-0.560722
9049,142958.4,187.067,180.797,-0.535337
9061,143148,187.392,181.112,-0.520586
9073,143337.6,187.713,181.427,-0.529831
9085,143527.2,188.03,181.744,-0.559488
9097,143716.8,188.341,182.059,-0.539647
9109,143906.4,188.648,182.375,-0.491912
9121,144096,188.961,182.69,-0.475527
9133,144285.6,189.28,183.005,-0.515219
9145,144475.2,189.604,183.321,-0.51482
9157,144664.8,189.923,183.636,-0.510211
9169,144854.4,190.229,183.953,-0.539191
9181,145044,190.531,184.268,-0.548217
9193,145233.6,190.842,184.582,-0.514847
9205,145423.2,191.156,184.896,-0.470778
9217,145612.8,191.485,185.211,-0.492585
9229,145802.4,191.81,185.526,-0.490566
9241,145992,192.133,185.842,-0.463911
9253,146181.6,192.446,186.158,-0.438102
9265,146371.2,192.751,186.474,-0.445253
9277,146560.8,193.065,186.789,-0.406879
9289,146750.4,193.388,187.105,-0.414687
9301,146940,193.714,187.42,-0.340945
9313,147129.6,194.033,187.737,-0.284208
9325,147319.2,194.353,188.055,-0.331838
9337,147508.8,194.659,188.371,-0.309594
9349,147698.4,194.965,188.687,-0.361072
9361,147888,195.286,189.003,-0.373807
9373,148077.6,195.61,189.319,-0.366461
9385,148267.2,195.933,189.636,-0.393908
9397,148456.8,196.251,189.953,-0.421485
9409,148646.4,196.566,190.27,-0.399527
9421,148836,196.871,190.587,-0.422968
9433,149025.6,197.186,190.905,-0.402903
9445,149215.2,197.506,191.222,-0.367978
9457,149404.8,197.826,191.539,-0.381792
9469,149594.4,198.133,191.856,-0.388353
9481,149784,198.434,192.173,-0.351557
9493,149973.6,198.742,192.488,-0.349816
9505,150163.2,199.06,192.801,-0.369178
9517,150352.8,199.388,193.116,-0.362614
9529,150542.4,199.716,193.433,-0.375726
9541,150732,200.031,193.749,-0.387362
9553,150921.6,200.356,194.067,-0.395427
9565,151111.2,200.664,194.384,-0.418515
9577,151300.8,200.966,194.701,-0.380299
9589,151490.4,201.276,195.016,-0.39981
9601,151680,201.599,195.332,-0.358837
9613,151869.6,201.927,195.649,-0.389822
9625,152059.2,202.246,195.966,-0.384356
9637,152248.8,202.566,196.283,-0.373003
9649,152438.4,202.87,196.6,-0.400349
9661,152628,203.182,196.916,-0.43462
9673,152817.6,203.504,197.232,-0.378249
9685,153007.2,203.83,197.549,-0.352978
9697,153196.8,204.151,197.866,-0.351665
9709,153386.4,204.466,198.184,-0.322137
9721,153576,204.78,198.501,-0.351268
9733,153765.6,205.086,198.818,-0.368919
9745,153955.2,205.398,199.135,-0.353516
9757,154144.8,205.718,199.452,-0.332305
9769,154334.4,206.035,199.768,-0.337202
9781,154524,206.346,200.085,-0.320418
9793,154713.6,206.661,200.402,-0.294178
9805,154903.2,206.985,200.719,-0.313035
9817,155092.8,207.304,201.036,-0.327765
9829,155282.4,207.619,201.355,-0.319812
9841,155472,207.925,201.672,-0.336669
9853,155661.6,208.226,201.988,-0.339257
9865,155851.2,208.538,202.304,-0.292467
9877,156040.8,208.862,202.619,-0.356688
9889,156230.4,209.191,202.934,-0.352527
9901,156420,209.519,203.251,-0.295442
9913,156609.6,209.84,203.569,-0.311217
9925,156799.2,210.151,203.887,-0.344823
9937,156988.8,210.452,204.204,-0.379804
9949,157178.4,210.764,204.52,-0.361028
9961,157368,211.083,204.836,-0.291692
9973,157557.6,211.407,205.153,-0.26697
9985,157747.2,211.73,205.47,-0.309185
9997,157936.8,212.05,205.787,-0.359401
10009,158126.4,212.363,206.105,-0.349876
10021,158316,212.669,206.422,-0.366675
10033,158505.6,212.974,206.738,-0.362247
10045,158695.2,213.278,207.055,-0.340915
10057,158884.8,213.592,207.369,-0.426929
10069,159074.4,213.917,207.684,-0.441168
10081,159264,214.245,207.999,-0.409385
10093,159453.6,214.565,208.317,-0.396237
10105,159643.2,214.889,208.634,-0.375927
10117,159832.8,215.208,208.952,-0.374251
10129,160022.4,215.512,209.269,-0.363191
10141,160212,215.819,209.585,-0.375799
10153,160401.6,216.134,209.901,-0.419742
10165,160591.2,216.468,210.218,-0.375505
10177,160780.8,216.793,210.536,-0.316995
10189,160970.4,217.111,210.853,-0.354405
10201,161160,217.426,211.171,-0.309112
10213,161349.6,217.738,211.489,-0.343353
10225,161539.2,218.051,211.807,-0.304978
10237,161728.8,218.368,212.124,-0.340213
10249,161918.4,218.678,212.442,-0.310246
10261,162108,219.001,212.76,-0.280954
10273,162297.6,219.312,213.078,-0.339867
10285,162487.2,219.618,213.395,-0.362355
10297,162676.8,219.926,213.711,-0.310659
10309,162866.4,220.242,214.027,-0.290792
10321,163056,220.564,214.342,-0.334815
10333,163245.6,220.889,214.659,-0.324321
10345,163435.2,221.204,214.976,-0.329381
10357,163624.8,221.528,215.293,-0.375487
10369,163814.4,221.842,215.611,-0.362695
10381,164004,222.145,215.928,-0.301108
10393,164193.6,222.457,216.244,-0.344163
10405,164383.2,222.775,216.56,-0.386141
10417,164572.8,223.098,216.876,-0.386872
10429,164762.4,223.42,217.193,-0.401562
10441,164952,223.74,217.51,-0.42756
10453,165141.6,224.057,217.828,-0.421869
10465,165331.2,224.37,218.146,-0.406228
10477,165520.8,224.681,218.463,-0.365259
10489,165710.4,225.001,218.781,-0.363724
10501,165900,225.32,219.099,-0.396124
10513,166089.6,225.638,219.417,-0.37534
10525,166279.2,225.947,219.735,-0.359388
10537,166468.8,226.252,220.053,-0.380543
10549,166658.4,226.565,220.369,-0.376061
10561,166848,226.888,220.686,-0.402927
10573,167037.6,227.212,221.003,-0.432799
10585,167227.2,227.533,221.32,-0.418566
10597,167416.8,227.846,221.638,-0.445769
10609,167606.4,228.156,221.956,-0.489456
10621,167796,228.473,222.272,-0.478471
10633,167985.6,228.794,222.589,-0.475987
10645,168175.2,229.115,222.907,-0.445195
10657,168364.8,229.43,223.227,-0.394736
10669,168554.4,229.74,223.545,-0.346223
10681,168744,230.059,223.863,-0.38986
10693,168933.6,230.376,224.181,-0.493382
10705,169123.2,230.691,224.499,-0.541011
10717,169312.8,230.995,224.818,-0.508456
10729,169502.4,231.304,225.135,-0.499022
10741,169692,231.614,225.4499,-0.515661
10753,169881.6,231.932,225.765,-0.516057
10765,170071.2,232.258,226.081,-0.532867
10777,170260.8,232.585,226.398,-0.584146
10789,170450.4,232.905,226.714,-0.608987
10801,170640,233.222,227.033,-0.621831
10813,170829.6,233.532,227.351,-0.623518
10825,171019.2,233.839,227.668,-0.604228
10837,171208.8,234.155,227.985,-0.593471
10849,171398.4,234.477,228.302,-0.588811
10861,171588,234.796,228.619,-0.578391
10873,171777.6,235.118,228.939,-0.600483
10885,171967.2,235.429,229.256,-0.633753
10897,172156.8,235.74,229.576,-0.620616
10909,172346.4,236.054,229.893,-0.59058
10921,172536,236.376,230.211,-0.605693
10933,172725.6,236.693,230.53,-0.653756
10945,172915.2,237.011,230.849,-0.645537
10957,173104.8,237.322,231.168,-0.64221
10969,173294.4,237.632,231.487,-0.643002
10981,173484,237.947,231.805,-0.636566
10993,173673.6,238.267,232.123,-0.658837
11005,173863.2,238.585,232.442,-0.643591
11017,174052.8,238.906,232.761,-0.650414
11029,174242.4,239.217,233.08,-0.645751
11041,174432,239.527,233.398,-0.660982
11053,174621.6,239.843,233.717,-0.652105
11065,174811.2,240.163,234.036,-0.657642
11077,175000.8,240.481,234.353,-0.628223
11089,175190.4,240.802,234.673,-0.652984
11101,175380,241.115,234.992,-0.616216
11113,175569.6,241.425,235.311,-0.657613
11125,175759.2,241.738,235.63,-0.668634
11137,175948.8,242.057,235.948,-0.669568
11149,176138.4,242.378,236.266,-0.693209
11161,176328,242.698,236.586,-0.723023
11173,176517.6,243.013,236.905,-0.685547
11185,176707.2,243.323,237.224,-0.695708
11197,176896.8,243.638,237.543,-0.680311
11209,177086.4,243.959,237.862,-0.708281
11221,177276,244.279,238.182,-0.728192
11233,177465.6,244.598,238.501,-0.735035
11245,177655.2,244.913,238.822,-0.720414
11257,177844.8,245.219,239.141,-0.719074
11269,178034.4,245.533,239.46,-0.708484
11281,178224,245.851,239.779,-0.711475
11293,178413.6,246.173,240.098,-0.695557
11305,178603.2,246.492,240.417,-0.69604
11317,178792.8,246.811,240.737,-0.68849
11329,178982.4,247.122,241.0577,-0.691853
11341,179172,247.437,241.377,-0.720252
11353,179361.6,247.756,241.697,-0.722549
11365,179551.2,248.074,242.017,-0.727715
11377,179740.8,248.392,242.338,-0.708762
11389,179930.4,248.708,242.66,-0.714295
11401,180120,249.02,242.981,-0.713499
11413,180309.6,249.333,243.302,-0.692919
11425,180499.2,249.651,243.623,-0.728811
11437,180688.8,249.969,243.945,-0.738591
11449,180878.4,250.285,244.265,-0.722566
11461,181068,250.6,244.588,-0.725565
11473,181257.6,250.916,244.909,-0.74086
11485,181447.2,251.2337,245.231,-0.751205
11497,181636.8,251.551,245.554,-0.753311
11509,181826.4,251.862,245.876,-0.75387
11521,182016,252.172,246.197,-0.750775
11533,182205.6,252.488,246.518,-0.734848
11545,182395.2,252.81,246.838,-0.728465
11557,182584.8,253.129,247.16,-0.724363
11569,182774.4,253.439,247.482,-0.721358
11581,182964,253.749,247.802,-0.746178
11593,183153.6,254.066,248.123,-0.732489
11605,183343.2,254.386,248.443,-0.750512
11617,183532.8,254.706,248.764,-0.757672
11629,183722.4,255.029,249.085,-0.760533
11641,183912,255.34,249.407,-0.756023
11653,184101.6,255.648,249.729,-0.745734
11665,184291.2,255.964,250.049,-0.738526
11677,184480.8,256.283,250.37,-0.729169
11689,184670.4,256.604,250.691,-0.725648
11701,184860,256.926,251.013,-0.717594
11713,185049.6,257.247,251.336,-0.695108
11725,185239.2,257.559,251.66,-0.688144
11737,185428.8,257.867,251.982,-0.693933
11749,185618.4,258.178,252.305,-0.698489
11761,185808,258.497,252.626,-0.693466
11773,185997.6,258.817,252.949,-0.689171
11785,186187.2,259.14,253.271,-0.697225
11797,186376.8,259.463,253.595,-0.693861
11809,186566.4,259.782,253.92,-0.700201
11821,186756,260.081,254.246,-0.705409
11833,186945.6,260.378,254.569,-0.701952
11845,187135.2,260.688,254.889,-0.69373
11857,187324.8,261.011,255.209,-0.687194
11869,187514.4,261.333,255.529,-0.698651
11881,187704,261.662,255.85,-0.704907
11893,187893.6,261.989,256.172,-0.721789
11905,188083.2,262.308,256.495,-0.720001
11917,188272.8,262.624,256.821,-0.719968
11929,188462.4,262.943,257.145,-0.718219
11941,188652,263.259,257.473,-0.713469
11953,188841.6,263.575,257.8,-0.727056
11965,189031.2,263.89,258.128,-0.738559
11977,189220.8,264.204,258.457,-0.749526
11989,189410.4,264.518,258.785,-0.761669
12001,189600,264.835,259.115,-0.758835
12013,189789.6,265.15,259.444,-0.756109
12025,189979.2,265.466,259.773,-0.758092
12037,190168.8,265.78,260.103,-0.769074
12049,190358.4,266.094,260.433,-0.781366
12061,190548,266.401,260.761,-0.796273
12073,190737.6,266.715,261.09,-0.809668
12085,190927.2,267.03,261.418,-0.820861
12097,191116.8,267.346,261.745,-0.824689
12109,191306.4,267.662,262.071,-0.827295
12121,191496,267.973,262.397,-0.824573
12133,191685.6,268.285,262.722,-0.819538
12145,191875.2,268.603,263.047,-0.815739
12157,192064.8,268.922,263.37,-0.820264
12169,192254.4,269.225,263.693,-0.843952
12181,192444,269.53,264.013,-0.859751
12193,192633.6,269.846,264.332,-0.853371
12205,192823.2,270.171,264.65,-0.844521
12217,193012.8,270.492,264.968,-0.855138
12229,193202.4,270.823,265.287,-0.84769
12241,193392,271.142,265.607,-0.839427
12253,193581.6,271.455,265.928,-0.837209
12265,193771.2,271.77,266.248,-0.838645
12277,193960.8,272.086,266.569,-0.84203
12289,194150.4,272.409,266.89,-0.84932
12301,194340,272.726,267.212,-0.842493
12313,194529.6,273.04,267.534,-0.841647
12325,194719.2,273.358,267.857,-0.852885
12337,194908.8,273.675,268.18,-0.856384
12349,195098.4,273.991,268.505,-0.858426
12361,195288,274.306,268.828,-0.856176
12373,195477.6,274.622,269.152,-0.85761
12385,195667.2,274.937,269.476,-0.8713
12397,195856.8,275.251,269.8,-0.882606
12409,196046.4,275.567,270.124,-0.89135
12421,196236,275.879,270.448,-0.896771
12433,196425.6,276.191,270.771,-0.909604
12445,196615.2,276.506,271.093,-0.93135
12457,196804.8,276.817,271.416,-0.946237
12469,196994.4,277.134,271.737,-0.964045
12481,197184,277.453,272.058,-1.004643
12493,197373.6,277.765,272.379,-1.061322
12505,197563.2,278.075,272.698,-1.168765
12517,197752.8,278.3909,273.018,-1.417918
12529,197942.4,278.71,273.336,-2.208587
12541,198132,279.031,273.655,-7.892363
12553,198321.6,279.346,273.973,-39.0635
12565,198511.2,279.656,274.289,-61.648
12577,198700.8,279.972,274.605,-61.6223
12589,198890.4,280.291,274.919,-61.5968
12601,199080,280.613,275.235,-61.5714
12613,199269.6,280.929,275.55,-61.5461
12625,199459.2,281.243,275.867,-36.3777
12637,199648.8,281.558,276.185,-17.249
12649,199838.4,281.878,276.504,-8.897108
12661,200028,282.193,276.823,-5.108272
12673,200217.6,282.508,277.142,-3.372761
12685,200407.2,282.824,277.46,-2.581111
12697,200596.8,283.141,277.779,-2.211928
12709,200786.4,283.449,278.098,-2.050432
12721,200976,283.757,278.415,-1.982822
12733,201165.6,284.073,278.731,-1.944455
12745,201355.2,284.397,279.046,-1.917445
12757,201544.8,284.717,279.361,-1.902923
12769,201734.4,285.041,279.678,-1.894935
12781,201924,285.358,279.995,-1.892702
12793,202113.6,285.675,280.313,-1.892928
12805,202303.2,285.986,280.631,-1.892772
12817,202492.8,286.297,280.949,-1.893272
12829,202682.4,286.613,281.266,-1.896778
12841,202872,286.932,281.584,-1.892044
12853,203061.6,287.242,281.9,-1.892583
12865,203251.2,287.548,282.216,-1.901927
12877,203440.8,287.864,282.531,-1.898334
12889,203630.4,288.186,282.845,-1.888258
12901,203820,288.506,283.159,-1.882865
12913,204009.6,288.83,283.475,-1.881206
12925,204199.2,289.143,283.79,-1.885298
12937,204388.8,289.457,284.106,-1.884702
12949,204578.4,289.775,284.422,-1.876219
12961,204768,290.096,284.738,-1.879582
12973,204957.6,290.411,285.054,-1.879163
12985,205147.2,290.719,285.372,-1.880734
12997,205336.8,291.033,285.686,-1.878833
13009,205526.4,291.352,286.002,-1.883101
13021,205716,291.674,286.317,-1.879616
13033,205905.6,291.987,286.634,-1.870901
13045,206095.2,292.3,286.95,-1.875218
13057,206284.8,292.618,287.266,-1.875225
13069,206474.4,292.935,287.582,-1.87532
13081,206664,293.222,287.899,-1.878313
13093,206853.6,293.217,288.204,-1.81692
13105,207043.2,293.192,288.488,-1.756899
13117,207232.8,293.178,288.751,-1.683834
13129,207422.4,293.173,288.994,-1.591934
13141,207612,293.159,289.22,-1.494425
13153,207801.6,293.151,289.428,-1.392105
13165,207991.2,293.153,289.619,-1.274364
13177,208180.8,293.156,289.798,-1.163256
13189,208370.4,293.159,289.962,-1.065403
13201,208560,293.152,290.116,-0.987238
13213,208749.6,293.147,290.257,-0.910934
13225,208939.2,293.15,290.388,-0.832846
13237,209128.8,293.157,290.509,-0.748187
13249,209318.4,293.155,290.622,-0.675242
13261,209508,293.147,290.726,-0.622387
13273,209697.6,293.146,290.822,-0.563243
13285,209887.2,293.149,290.91,-0.512282
13297,210076.8,293.156,290.992,-0.446605
13309,210266.4,293.148,291.069,-0.40667
13321,210456,293.141,291.138,-0.351319
13333,210645.6,293.143,291.202,-0.306863
13345,210835.2,293.146,291.261,-0.274932
13357,211024.8,293.152,291.316,-0.245997
13369,211214.4,293.142,291.3662,-0.20028
13381,211404,293.135,291.411,-0.173935
13393,211593.6,293.138,291.453,-0.148791
13405,211783.2,293.145,291.491,-0.130861
13417,211972.8,293.148,291.526,-0.104512
13429,212162.4,293.139,291.558,-0.090381
13441,212352,293.134,291.587,-0.074281
13453,212541.6,293.138,291.613,-0.05319
13465,212731.2,293.148,291.638,-0.027988
13477,212920.8,293.154,291.661,-0.002171
13489,213110.4,293.138,291.682,-0.006139
13501,213300,293.124,291.699,-0.004895
13513,213489.6,293.127,291.713,0.017223
13525,213679.2,293.131,291.725,0.03455
13537,213868.8,293.144,291.738,0.062194
13549,214058.4,293.149,291.749,0.083257
13561,214248,293.145,291.759,0.088403
13573,214437.6,293.146,291.769,0.096976
13585,214627.2,293.146,291.777,0.093699
13597,214816.8,293.155,291.786,0.112279
13609,215006.4,293.148,291.795,0.111155
13621,215196,293.137,291.801,0.102949
13633,215385.6,293.139,291.805,0.113526
13645,215575.2,293.148,291.81,0.130799
13657,215764.8,293.156,291.815,0.155481
13669,215954.4,293.155,291.82,0.152786
13681,216144,293.137,291.823,0.127365
13693,216333.6,293.129,291.825,0.129979
13705,216523.2,293.133,291.825,0.144241
13717,216712.8,293.146,291.826,0.153315
13729,216902.4,293.155,291.828,0.164496
13741,217092,293.143,291.829,0.155249
13753,217281.6,293.13,291.829,0.15822
13765,217471.2,293.132,291.827,0.126305
13777,217660.8,293.136,291.825,0.091293
13789,217850.4,293.148,291.824,0.077176
13801,218040,293.15,291.8235,0.07375
13813,218229.6,293.149,291.823,0.079225
13825,218419.2,293.154,291.823,0.076519
13837,218608.8,293.159,291.823,0.078016
13849,218798.4,293.157,291.824,0.074993
13861,218988,293.137,291.824,0.079007
13873,219177.6,293.131,291.821,0.092796
13885,219367.2,293.138,291.818,0.107369
13897,219556.8,293.149,291.816,0.113853
13909,219746.4,293.146,291.815,0.086199
13921,219936,293.136,291.813,0.052666
13933,220125.6,293.134,291.81,0.036792
13945,220315.2,293.141,291.807,0.003115
13957,220504.8,293.152,291.805,-0.093092
13969,220694.4,293.161,291.805,-0.182688
13981,220884,293.159,291.805,-0.234099
13993,221073.6,293.154,291.805,-0.269613
14005,221263.2,293.148,291.805,-0.293324
14017,221452.8,293.145,291.804,-0.299877
14029,221642.4,293.149,291.803,-0.292657
14041,221832,293.157,291.803,-0.284371
14053,222021.6,293.145,291.803,-0.280191
14065,222211.2,293.13,291.8,-0.266419
14077,222400.8,293.13,291.797,-0.258751
14089,222590.4,293.137,291.793,-0.244737
14101,222780,293.149,291.791,-0.226957
14113,222969.6,293.14,291.789,-0.234282
14125,223159.2,293.131,291.785,-0.267633
14137,223348.8,293.133,291.781,-0.315131
14149,223538.4,293.141,291.777,-0.338285
14161,223728,293.149,291.774,-0.349894
14173,223917.6,293.144,291.772,-0.360576
14185,224107.2,293.136,291.769,-0.36527
14197,224296.8,293.138,291.764,-0.36393
14209,224486.4,293.143,291.76,-0.358007
14221,224676,293.154,291.758,-0.356942
14233,224865.6,293.145,291.756,-0.356626
14245,225055.2,293.136,291.753,-0.360353
14257,225244.8,293.138,291.749,-0.356617
14269,225434.4,293.144,291.746,-0.351937
14281,225624,293.151,291.744,-0.366564
14293,225813.6,293.152,291.742,-0.383183
14305,226003.2,293.153,291.741,-0.388175
14317,226192.8,293.146,291.739,-0.394009
14329,226382.4,293.144,291.737,-0.393359
14341,226572,293.148,291.735,-0.387262
14353,226761.6,293.152,291.734,-0.386128
14365,226951.2,293.143,291.732,-0.390488
14377,227140.8,293.136,291.73,-0.389971
14389,227330.4,293.14,291.726,-0.389454
14401,227520,293.145,291.723,-0.387031
14413,227709.6,293.152,291.722,-0.386513
14425,227899.2,293.145,291.721,-0.389513
14437,228088.8,293.139,291.718,-0.393615
14449,228278.4,293.141,291.715,-0.392758
14461,228468,293.147,291.713,-0.389022
14473,228657.6,293.155,291.711,-0.384249
14485,228847.2,293.156,291.7111,-0.381018
14497,229036.8,293.153,291.71,-0.380218
14509,229226.4,293.155,291.71,-0.380604
14521,229416,293.154,291.71,-0.385119
14533,229605.6,293.152,291.71,-0.387307
14545,229795.2,293.155,291.709,-0.387532
14557,229984.8,293.155,291.7095,-0.386426
14569,230174.4,293.151,291.709,-0.387866
14581,230364,293.153,291.709,-0.383939
14593,230553.6,293.157,291.709,-0.375491
14605,230743.2,293.154,291.709,-0.375773
14617,230932.8,293.14,291.709,-0.381267
14629,231122.4,293.134,291.707,-0.377968
14641,231312,293.14,291.704,-0.370397
14653,231501.6,293.148,291.702,-0.363102
14665,231691.2,293.157,291.701,-0.360384
14677,231880.8,293.154,291.701,-0.361749
14689,232070.4,293.144,291.7,-0.369667
14701,232260,293.142,291.698,-0.371148
14713,232449.6,293.147,291.697,-0.368494
14725,232639.2,293.151,291.696,-0.361573
14737,232828.8,293.152,291.696,-0.364855
14749,233018.4,293.152,291.696,-0.370809
14761,233208,293.155,291.696,-0.372548
14773,233397.6,293.155,291.697,-0.375525
14785,233587.2,293.143,291.697,-0.37898
14797,233776.8,293.131,291.695,-0.383403
14809,233966.4,293.132,291.691,-0.379996
14821,234156,293.139,291.688,-0.370893
14833,234345.6,293.146,291.686,-0.361582
14845,234535.2,293.154,291.685,-0.35951
14857,234724.8,293.152,291.685,-0.358778
14869,234914.4,293.142,291.684,-0.363604
14881,235104,293.141,291.682,-0.362966
14893,235293.6,293.146,291.679,-0.361913
14905,235483.2,293.151,291.678,-0.360531
14917,235672.8,293.155,291.679,-0.359299
14929,235862.4,293.15,291.678,-0.361343
14941,236052,293.143,291.677,-0.363192
14953,236241.6,293.142,291.676,-0.364494
14965,236431.2,293.148,291.675,-0.362318
14975,236589.2,293.152,291.674,-0.356819