File: z_unorganized_archive/i_data/water_tests/archive/2015_blank.csv
Blank_run_20150414,,,,
Creation Date : 3/2/2023 1:23:45 PM,,,,
User : admin,,,,
,,,,
HeatFlow :,,,,
 Initial Mass : 0 mg,,,,
 Molar Mass : N/A,,,,
,,,,
Index,Time(s),Furnace Temperature(K),Sample Temperature(K),HeatFlow(mW)
1,0,298.116,298.094,0.112649
13,189.6,298.109,298.097,0.013272
25,379.2,298.103,298.099,-0.033066
37,568.8,298.092,298.101,-0.051247
49,758.4,298.072,298.101,-0.055223
61,948,298.032,298.1,-0.052649
73,1137.6,297.96,298.094,-0.044239
85,1327.2,297.823,298.082,-0.024794
97,1516.8,297.575,298.057,-0.023605
109,1706.4,297.148,298.01,-0.041972
121,1896,296.514,297.926,-0.098032
133,2085.6,295.674,297.795,-0.176643
145,2275.2,294.645,297.602,-0.240289
157,2464.8,293.455,297.34,-0.290183
169,2654.4,292.129,297.004,-0.337504
181,2844,290.7,296.589,-0.368532
193,3033.6,289.171,296.093,-0.390039
205,3223.2,287.535,295.515,-0.397241
217,3412.8,285.816,294.856,-0.364214
229,3602.4,284.0462,294.114,-0.313401
241,3792,282.223,293.297,-0.277462
253,3981.6,280.357,292.408,-0.281668
265,4171.2,278.485,291.45,-0.209513
277,4360.8,276.632,290.419,-0.127829
289,4550.4,274.773,289.325,-0.094837
301,4740,272.88,288.174,-0.057616
313,4929.6,270.975,286.967,-0.001962
325,5119.2,269.094,285.711,0.038271
337,5308.8,267.27,284.414,0.082474
349,5498.4,265.503,283.083,0.1162
361,5688,263.76,281.725,0.042819
373,5877.6,262.046,280.343,0.086425
385,6067.2,260.365,278.942,0.057886
397,6256.8,258.704,277.526,0.096759
409,6446.4,257.013,276.094,0.111629
421,6636,255.306,274.646,0.137303
433,6825.6,253.62,273.184,0.194894
445,7015.2,251.966,271.712,0.360198
457,7204.8,250.361,270.233,0.388791
469,7394.4,248.756,268.751,0.485954
481,7584,247.142,267.263,0.661492
493,7773.6,245.543,265.771,0.813692
505,7963.2,243.893,264.276,1.208377
517,8152.8,242.098,262.767,1.341306
529,8342.4,240.165,261.237,1.54475
541,8532,238.123,259.679,1.896434
553,8721.6,236.003,258.089,2.067939
565,8911.2,233.842,256.468,1.870251
577,9100.8,231.672,254.814,2.144825
589,9290.4,229.527,253.133,1.61237
601,9480,227.421,251.429,0.97877
613,9669.6,225.363,249.706,0.356794
625,9859.2,223.328,247.968,0.265269
637,10048.8,221.328,246.221,0.101758
649,10238.4,219.347,244.466,-0.254258
661,10428,217.424,242.704,-0.534508
673,10617.6,215.556,240.943,-0.130135
685,10807.2,213.741,239.184,-0.089896
697,10996.8,211.9709,237.43,-0.150454
709,11186.4,210.249,235.685,-0.00763
721,11376,208.583,233.951,0.448184
733,11565.6,206.97,232.229,0.254321
745,11755.2,205.406,230.523,-0.124407
757,11944.8,203.892,228.835,-0.490511
769,12134.4,202.422,227.165,-0.698275
781,12324,201.021,225.518,-0.412252
793,12513.6,199.671,223.893,-0.127157
805,12703.2,198.366,222.293,-0.15049
817,12892.8,197.083,220.719,0.149257
829,13082.4,195.823,219.169,0.091197
841,13272,194.578,217.645,-0.361455
853,13461.6,193.371,216.144,-0.223696
865,13651.2,192.189,214.669,0.193305
877,13840.8,191.023,213.219,-0.379661
889,14030.4,189.874,211.787,-0.533799
901,14220,188.697,210.377,-0.06144
913,14409.6,187.492,208.987,0.040412
925,14599.2,186.298,207.614,0.369021
937,14788.8,185.128,206.257,0.858401
949,14978.4,183.99,204.917,0.736702
961,15168,182.915,203.594,1.044379
973,15357.6,181.901,202.294,1.233986
985,15547.2,180.917,201.014,0.687043
997,15736.8,179.933,199.757,0.524797
1009,15926.4,179.02,198.523,0.560577
1021,16116,178.157,197.311,0.755058
1033,16305.6,177.319,196.126,0.645811
1045,16495.2,176.493,194.965,1.185383
1057,16684.8,175.672,193.826,1.602374
1069,16874.4,174.858,192.711,1.301365
1081,17064,174.039,191.615,1.34303
1093,17253.6,173.224,190.539,1.396053
1105,17443.2,172.422,189.481,1.411593
1117,17632.8,171.644,188.441,1.324952
1129,17822.4,170.893,187.421,1.436314
1141,18012,170.169,186.42,1.955933
1153,18201.6,169.469,185.437,1.359655
1165,18391.2,168.785,184.474,0.951559
1177,18580.8,168.104,183.53,0.729929
1189,18770.4,167.415,182.602,1.240014
1201,18960,166.735,181.69,1.534374
1213,19149.6,166.074,180.794,1.680112
1225,19339.2,165.435,179.915,1.982198
1237,19528.8,164.81,179.051,1.978559
1249,19718.4,164.16,178.203,1.675157
1261,19908,163.489,177.367,1.946128
1273,20097.6,162.822,176.542,1.422686
1285,20287.2,162.173,175.728,1.239891
1297,20476.8,161.556,174.926,1.309886
1309,20666.4,160.976,174.138,1.253714
1321,20856,160.401,173.362,1.574676
1333,21045.6,159.817,172.599,1.763157
1345,21235.2,159.242,171.848,1.788881
1357,21424.8,158.67,171.109,1.537139
1369,21614.4,158.041,170.379,1.866895
1381,21804,157.346,169.652,1.721036
1393,21993.6,156.62,168.928,1.537585
1405,22183.2,155.901,168.205,1.381145
1417,22372.8,155.209,167.484,1.611151
1429,22562.4,154.559,166.768,1.412046
1441,22752,153.954,166.056,1.579243
1453,22941.6,153.374,165.354,1.601408
1465,23131.2,152.761,164.658,1.596516
1477,23320.8,152.104,163.966,1.859714
1489,23510.4,151.435,163.277,2.006746
1501,23700,150.781,162.59,1.971104
1513,23889.6,150.157,161.907,2.064537
1525,24079.2,149.568,161.23,1.941607
1537,24268.8,149.019,160.559,1.944241
1549,24458.4,148.487,159.896,2.078131
1561,24648,147.968,159.242,1.996963
1573,24837.6,147.465,158.598,2.31924
1585,25027.2,146.948,157.962,1.906083
1597,25216.8,146.374,157.331,2.06167
1609,25406.4,145.757,156.702,1.760445
1621,25596,145.124,156.075,1.916176
1633,25785.6,144.503,155.448,1.614103
1645,25975.2,143.911,154.823,1.649319
1657,26164.8,143.361,154.202,1.611015
1669,26354.4,142.849,153.587,1.680828
1681,26544,142.359,152.979,1.596782
1693,26733.6,141.857,152.378,1.676538
1705,26923.2,141.354,151.782,1.868731
1717,27112.8,140.868,151.194,1.730699
1729,27302.4,140.41,150.612,2.070303
1741,27492,139.981,150.038,1.996455
1753,27681.6,139.563,149.474,1.702689
1765,27871.2,139.105,148.917,1.76813
1777,28060.8,138.633,148.365,1.75653
1789,28250.4,138.166,147.818,1.765094
1801,28440,137.706,147.276,1.818205
1813,28629.6,137.243,146.74,1.380278
1825,28819.2,136.788,146.209,1.38356
1837,29008.8,136.32,145.681,1.484117
1849,29198.4,135.842,145.158,1.707163
1861,29388,135.374,144.636,1.640559
1873,29577.6,134.932,144.12,1.53831
1885,29767.2,134.516,143.608,1.651303
1897,29956.8,134.087,143.103,1.625523
1909,30146.4,133.589,142.599,1.762901
1921,30336,133.036,142.094,1.629223
1933,30525.6,132.471,141.587,1.656887
1945,30715.2,131.927,141.077,1.828657
1957,30904.8,131.417,140.568,1.653237
1969,31094.4,130.943,140.059,1.746089
1981,31284,130.489,139.553,1.529032
1993,31473.6,130.002,139.05,1.435516
2005,31663.2,129.468,138.546,1.751
2017,31852.8,128.922,138.041,1.789536
2029,32042.4,128.396,137.535,1.87336
2041,32232,127.904,137.028,2.208201
2053,32421.6,127.443,136.525,1.936511
2065,32611.2,127,136.023,1.708276
2077,32800.8,126.532,135.524,1.587923
2089,32990.4,126.023,135.027,1.431758
2101,33180,125.489,134.529,1.751471
2113,33369.6,124.952,134.029,1.614108
2125,33559.2,124.439,133.528,1.711662
2137,33748.8,123.961,133.028,1.776048
2149,33938.4,123.521,132.529,1.709436
2161,34128,123.115,132.035,1.946269
2173,34317.6,122.705,131.547,1.784563
2185,34507.2,122.254,131.062,1.742506
2197,34696.8,121.778,130.577,1.763942
2209,34886.4,121.306,130.095,2.05844
2221,35076,120.852,129.613,1.951931
2233,35265.6,120.429,129.133,1.68519
2245,35455.2,120.038,128.658,1.697269
2257,35644.8,119.678,128.189,1.600259
2269,35834.4,119.299,127.725,1.827421
2281,36024,118.872,127.265,1.835084
2293,36213.6,118.421,126.805,1.706745
2305,36403.2,117.974,126.347,1.598677
2317,36592.8,117.551,125.889,1.572132
2329,36782.4,117.159,125.436,1.44169
2341,36972,116.795,124.986,1.24865
2353,37161.6,116.417,124.541,1.494659
2365,37351.2,115.991,124.098,1.565424
2377,37540.8,115.534,123.655,1.72867
2389,37730.4,115.077,123.211,1.73536
2401,37920,114.643,122.769,1.767612
2413,38109.6,114.237,122.327,1.688253
2425,38299.2,113.856,121.889,1.486037
2437,38488.8,113.477,121.453,1.426098
2449,38678.4,113.092,121.02,1.532453
2461,38868,112.71,120.59,1.497479
2473,39057.6,112.311,120.163,1.551101
2485,39247.2,111.8926,119.736,1.640844
2497,39436.8,111.485,119.31,1.542593
2509,39626.4,111.097,118.886,1.541379
2521,39816,110.735,118.465,1.468807
2533,40005.6,110.39,118.047,1.452362
2545,40195.2,110.027,117.633,1.556745
2557,40384.8,109.639,117.221,1.536727
2569,40574.4,109.219,116.809,1.599476
2581,40764,108.765,116.397,1.594662
2593,40953.6,108.277,115.983,1.545188
2605,41143.2,107.773,115.565,1.608015
2617,41332.8,107.268,115.142,1.567635
2629,41522.4,106.782,114.716,1.525365
2641,41712,106.328,114.286,1.547947
2653,41901.6,105.91,113.857,1.773188
2665,42091.2,105.528,113.429,1.772715
2677,42280.8,105.176,113.004,1.729274
2689,42470.4,104.831,112.583,1.799005
2701,42660,104.475,112.165,1.747618
2713,42849.6,104.117,111.751,1.790414
2725,43039.2,103.775,111.339,1.738898
2737,43228.8,103.454,110.932,1.686253
2749,43418.4,103.155,110.531,1.651494
2761,43608,102.86,110.135,1.563661
2773,43797.6,102.548,109.743,1.504997
2785,43987.2,102.224,109.356,1.458737
2797,44176.8,101.894,108.971,1.457188
2809,44366.4,101.573,108.59,1.55846
2821,44556,101.269,108.212,1.417945
2833,44745.6,100.987,107.838,1.317302
2845,44935.2,100.728,107.47,1.311357
2857,45124.8,100.475,107.108,1.469928
2869,45314.4,100.206,106.751,1.355173
2881,45504,99.9298,106.398,1.381123
2893,45693.6,99.653,106.05,1.359963
2905,45883.2,99.3897,105.706,1.302022
2917,46072.8,99.1458,105.366,1.235213
2929,46262.4,98.9175,105.031,1.336215
2941,46452,98.6829,104.703,1.30936
2953,46641.6,98.4247,104.378,1.18469
2965,46831.2,98.1514,104.057,1.084962
2977,47020.8,97.8776,103.738,1.055361
2989,47210.4,97.6179,103.422,1.218476
3001,47400,97.3752,103.11,1.154978
3013,47589.6,97.153,102.801,1.266878
3025,47779.2,96.9476,102.496,1.146063
3037,47968.8,96.7313,102.197,1.184564
3049,48158.4,96.4791,101.903,1.010633
3061,48348,96.2206,101.61,1.047614
3073,48537.6,95.9634,101.319,1.04698
3085,48727.2,95.7186,101.03,0.999863
3097,48916.8,95.4896,100.744,0.983636
3109,49106.4,95.2783,100.46,1.000558
3121,49296,95.0827,100.182,1.070728
3133,49485.6,94.8817,99.9073,1.02093
3145,49675.2,94.6544,99.6358,1.014924
3157,49864.8,94.414,99.36553,1.001483
3169,50054.4,94.1779,99.0986,0.909297
3181,50244,93.9536,98.8326,0.942909
3193,50433.6,93.7445,98.5696,0.926845
3205,50623.2,93.5545,98.3096,0.962017
3217,50812.8,93.3793,98.0543,0.903262
3229,51002.4,93.2127,97.8031,0.845123
3241,51192,93.0299,97.5556,0.87815
3253,51381.6,92.8307,97.3111,0.830221
3265,51571.2,92.6257,97.0694,0.833234
3277,51760.8,92.4297,96.8293,0.769276
3289,51950.4,92.2477,96.5918,0.801307
3301,52140,92.0788,96.35726,0.822952
3313,52329.6,91.922,96.1273,0.814783
3325,52519.2,91.7685,95.9007,0.722329
3337,52708.8,91.6066,95.6787,0.753439
3349,52898.4,91.4314,95.4591,0.784949
3361,53088,91.2528,95.2418,0.775806
3373,53277.6,91.0767,95.0268,0.737934
3385,53467.2,90.90766,94.8136,0.690725
3397,53656.8,90.7492,94.6031,0.669111
3409,53846.4,90.6035,94.3961,0.679868
3421,54036,90.4679,94.1927,0.623888
3433,54225.6,90.3273,93.9919,0.624585
3445,54415.2,90.1814,93.7952,0.642951
3457,54604.8,90.0286,93.6007,0.692753
3469,54794.4,89.87702,93.4081,0.633891
3481,54984,89.7325,93.2179,0.5803
3493,55173.6,89.5966,93.0305,0.578911
3505,55363.2,89.4726,92.8473,0.514054
3517,55552.8,89.3535,92.666,0.496247
3529,55742.4,89.2384,92.4878,0.515433
3541,55932,89.1213,92.3147,0.493352
3553,56121.6,88.9975,92.1434,0.45205
3565,56311.2,88.8715,91.9751,0.468432
3577,56500.8,88.74816,91.8091,0.453259
3589,56690.4,88.63288,91.6447,0.459029
3601,56880,88.5254,91.4839,0.424404
3613,57069.6,88.4098,91.326,0.408346
3625,57259.2,88.2823,91.1703,0.393847
3637,57448.8,88.1451,91.0154,0.388459
3649,57638.4,88.0016,90.86135,0.429963
3661,57828,87.8583,90.7083,0.427302
3673,58017.6,87.7183,90.5561,0.464423
3685,58207.2,87.58956,90.4045,0.477517
3697,58396.8,87.47164,90.2539,0.436183
3709,58586.4,87.3648,90.106,0.396891
3721,58776,87.2641,89.9596,0.419063
3733,58965.6,87.1679,89.8167,0.402706
3745,59155.2,87.076,89.6764,0.386282
3757,59344.8,86.9876,89.53829,0.39973
3769,59534.4,86.9023,89.4031,0.387129
3781,59724,86.81098,89.2714,0.375929
3793,59913.6,86.7109,89.1413,0.342703
3805,60103.2,86.6037,89.01235,0.330777
3817,60292.8,86.49465,88.885,0.346635
3829,60482.4,86.3875,88.7588,0.325924
3841,60672,86.2819,88.6332,0.31534
3853,60861.6,86.181,88.509,0.306757
3865,61051.2,86.0871,88.3864,0.32441
3877,61240.8,86.0021,88.2658,0.333043
3889,61430.4,85.9252,88.1464,0.325636
3901,61620,85.8517,88.0299,0.309664
3913,61809.6,85.7732,87.916,0.312987
3925,61999.2,85.69184,87.8036,0.304807
3937,62188.8,85.6099,87.6931,0.302394
3949,62378.4,85.53147,87.5841,0.336857
3961,62568,85.4579,87.4774,0.318813
3973,62757.6,85.3907,87.3718,0.313204
3985,62947.2,85.3252,87.2689,0.293003
3997,63136.8,85.2583,87.1685,0.294487
4009,63326.4,85.1867,87.0698,0.294719
4021,63516,85.1123,86.9726,0.285392
4033,63705.6,85.0382,86.8765,0.291397
4045,63895.2,84.9694,86.7814,0.351397
4057,64084.8,84.907,86.6884,0.355486
4069,64274.4,84.8507,86.5972,0.346188
4081,64464,84.7954,86.5074,0.341484
4093,64653.6,84.7357,86.4206,0.336214
4105,64843.2,84.6708,86.3347,0.322639
4117,65032.8,84.6039,86.2494,0.327141
4129,65222.4,84.5382,86.1664,0.309201
4141,65412,84.475,86.0837,0.308659
4153,65601.6,84.4168,86.0028,0.298922
4165,65791.2,84.3636,85.9221,0.298851
4177,65980.8,84.3137,85.844,0.293882
4189,66170.4,84.2653,85.7668,0.296576
4201,66360,84.21926,85.69184,0.271394
4213,66549.6,84.17568,85.6184,0.262991
4225,66739.2,84.1276,85.5465,0.257987
4237,66928.8,84.074,85.4762,0.252418
4249,67118.4,84.0151,85.4065,0.261268
4261,67308,83.9495,85.337,0.253389
4273,67497.6,83.88172,85.268,0.252978
4285,67687.2,83.8158,85.1991,0.26115
4297,67876.8,83.7529,85.1302,0.249138
4309,68066.4,83.6933,85.0625,0.249895
4321,68256,83.6401,84.9942,0.243603
4333,68445.6,83.592,84.9273,0.245557
4345,68635.2,83.5501,84.8624,0.246048
4357,68824.8,83.5087,84.7977,0.254718
4369,69014.4,83.4642,84.7349,0.241443
4381,69204,83.4161,84.6733,0.242377
4393,69393.6,83.3659,84.6117,0.252688
4405,69583.2,83.3153,84.5505,0.245169
4417,69772.8,83.2655,84.4911,0.241726
4429,69962.4,83.2192,84.432,0.234069
4441,70152,83.1782,84.373,0.237998
4453,70341.6,83.1426,84.3156,0.246975
4465,70531.2,83.1083,84.2593,0.237803
4477,70720.8,83.0705,84.2049,0.234802
4489,70910.4,83.0284,84.1504,0.231901
4501,71100,82.9863,84.0971,0.238564
4513,71289.6,82.9442,84.0452,0.232186
4525,71479.2,82.9035,83.9934,0.228542
4537,71668.8,82.8667,83.9416,0.228747
4549,71858.4,82.834,83.8913,0.231443
4561,72048,82.80477,83.8414,0.231997
4573,72237.6,82.77587,83.79328,0.224491
4585,72427.2,82.74906,83.7468,0.222966
4597,72616.8,82.7239,83.7006,0.219411
4609,72806.4,82.6996,83.6564,0.217366
4621,72996,82.6747,83.6134,0.226666
4633,73185.6,82.644,83.5712,0.215375
4645,73375.2,82.6092,83.5288,0.211314
4657,73564.8,82.5723,83.4877,0.218782
4669,73754.4,82.5308,83.4467,0.203623
4681,73944,82.489,83.4047,0.208969
4693,74133.6,82.4479,83.3634,0.220099
4705,74323.2,82.41001,83.3223,0.21365
4717,74512.8,82.3767,83.2814,0.210771
4729,74702.4,82.347,83.2403,0.211601
4741,74892,82.3214,83.2011,0.209308
4753,75081.6,82.2968,83.162,0.220115
4765,75271.2,82.2684,83.1243,0.20873
4777,75460.8,82.2359,83.0859,0.205284
4789,75650.4,82.2005,83.0487,0.212658
4801,75840,82.1592,83.01142,0.205792
4813,76029.6,82.1183,82.9734,0.211789
4825,76219.2,82.0788,82.9358,0.213129
4837,76408.8,82.0427,82.898,0.209993
4849,76598.4,82.0098,82.8595,0.207716
4861,76788,81.981,82.8223,0.203636
4873,76977.6,81.9554,82.7857,0.204167
4885,77167.2,81.933,82.7498,0.214735
4897,77356.8,81.91059,82.715,0.204363
4909,77546.4,81.887,82.6796,0.199702
4921,77736,81.8643,82.64614,0.207879
4933,77925.6,81.8429,82.6123,0.198033
4945,78115.2,81.8229,82.58,0.200091
4957,78304.8,81.8049,82.5481,0.204707
4969,78494.4,81.7906,82.5178,0.20935
4981,78684,81.7765,82.48754,0.212337
4993,78873.6,81.7577,82.4593,0.197859
5005,79063.2,81.73786,82.4308,0.190448
5017,79252.8,81.7155,82.4024,0.192724
5029,79442.4,81.69187,82.3743,0.188918
5041,79632,81.6699,82.3469,0.185879
5053,79821.6,81.6499,82.3198,0.194041
5065,80011.2,81.6812,82.2938,0.189151
5077,80200.8,82.0327,82.277,0.150255
5089,80390.4,82.5532,82.2847,0.100747
5101,80580,83.0166,82.3183,0.054142
5113,80769.6,83.3939,82.3741,0.01469
5125,80959.2,83.7203,82.4485,-0.027869
5137,81148.8,84.0312,82.5376,-0.0669
5149,81338.4,84.34342,82.6394,-0.087433
5161,81528,84.66,82.7539,-0.120603
5173,81717.6,84.9781,82.88024,-0.150396
5185,81907.2,85.2956,83.0166,-0.178268
5197,82096.8,85.6136,83.16474,-0.198974
5209,82286.4,85.9319,83.3217,-0.212678
5221,82476,86.2468,83.4891,-0.242321
5233,82665.6,86.5623,83.6643,-0.263007
5245,82855.2,86.8803,83.8477,-0.268702
5257,83044.8,87.1995,84.0385,-0.294444
5269,83234.4,87.5183,84.2367,-0.313575
5281,83424,87.8361,84.4419,-0.329627
5293,83613.6,88.1529,84.65325,-0.341025
5305,83803.2,88.4671,84.8706,-0.353903
5317,83992.8,88.7824,85.0935,-0.3638
5329,84182.4,89.096,85.3212,-0.380673
5341,84372,89.4106,85.5528,-0.391763
5353,84561.6,89.7302,85.78916,-0.392317
5365,84751.2,90.0486,86.0307,-0.410237
5377,84940.8,90.368,86.276,-0.420827
5389,85130.4,90.68624,86.5234,-0.430135
5401,85320,91.0013,86.7765,-0.43742
5413,85509.6,91.3142,87.0316,-0.447934
5425,85699.2,91.6286,87.2896,-0.443726
5437,85888.8,91.9453,87.5506,-0.460688
5449,86078.4,92.2627,87.8149,-0.466757
5461,86268,92.5804,88.0808,-0.473188
5473,86457.6,92.8985,88.34957,-0.474319
5485,86647.2,93.2163,88.62,-0.474018
5497,86836.8,93.532,88.8931,-0.487525
5509,87026.4,93.8396,89.1666,-0.496292
5521,87216,94.15235,89.4427,-0.501938
5533,87405.6,94.46984,89.72,-0.495865
5545,87595.2,94.792,89.9997,-0.506885
5557,87784.8,95.1118,90.2808,-0.513945
5569,87974.4,95.4299,90.5641,-0.519541
5581,88164,95.7469,90.8479,-0.519625
5593,88353.6,96.0638,91.1332,-0.526372
5605,88543.2,96.3768,91.4195,-0.522298
5617,88732.8,96.6937,91.7075,-0.524752
5629,88922.4,97.0113,91.9948,-0.532137
5641,89112,97.3288,92.2843,-0.538717
5653,89301.6,97.6419,92.574,-0.541272
5665,89491.2,97.95,92.8644,-0.545903
5677,89680.8,98.25791,93.1551,-0.541476
5689,89870.4,98.5774,93.4478,-0.549022
5701,90060,98.89794,93.7409,-0.554962
5713,90249.6,99.219,94.0348,-0.55808
5725,90439.2,99.537,94.3299,-0.559125
5737,90628.8,99.85726,94.6251,-0.553075
5749,90818.4,100.18,94.9219,-0.556423
5761,91008,100.495,95.21871,-0.554328
5773,91197.6,100.811,95.5149,-0.554454
5785,91387.2,101.13,95.8123,-0.558973
5797,91576.8,101.429,96.1099,-0.570001
5809,91766.4,101.747,96.4075,-0.571682
5821,91956,102.065,96.7058,-0.573779
5833,92145.6,102.38,97.0045,-0.576303
5845,92335.2,102.695,97.3039,-0.577194
5857,92524.8,103.014,97.60343,-0.570432
5869,92714.4,103.335,97.9043,-0.570623
5881,92904,103.658,98.2046,-0.576548
5893,93093.6,103.97,98.5048,-0.576037
5905,93283.2,104.278,98.806,-0.585385
5917,93472.8,104.59,99.1066,-0.58688
5929,93662.4,104.907,99.4078,-0.589144
5941,93852,105.227,99.7108,-0.591267
5953,94041.6,105.545,100.013,-0.589505
5965,94231.2,105.865,100.316,-0.592293
5977,94420.8,106.178,100.618,-0.595037
5989,94610.4,106.488,100.921,-0.591602
6001,94800,106.807,101.224,-0.58895
6013,94989.6,107.128,101.527,-0.587442
6025,95179.2,107.442,101.831,-0.588317
6037,95368.8,107.746,102.134,-0.59498
6049,95558.4,108.054,102.438,-0.59695
6061,95748,108.373,102.741,-0.596807
6073,95937.6,108.695,103.045,-0.59406
6085,96127.2,109.017,103.349,-0.592199
6097,96316.8,109.342,103.654,-0.589084
6109,96506.4,109.666,103.96,-0.588416
6121,96696,109.985,104.266,-0.599259
6133,96885.6,110.297,104.572,-0.598909
6145,97075.2,110.597,104.878,-0.604224
6157,97264.8,110.901,105.183,-0.609401
6169,97454.4,111.216,105.488,-0.609297
6181,97644,111.54,105.793,-0.606667
6193,97833.6,111.866,106.1,-0.597972
6205,98023.2,112.191,106.406,-0.598312
6217,98212.8,112.513,106.713,-0.601617
6229,98402.4,112.82,107.02,-0.60323
6241,98592,113.115,107.327,-0.609231
6253,98781.6,113.424,107.632,-0.61075
6265,98971.2,113.744,107.938,-0.611175
6277,99160.8,114.069,108.244,-0.612344
6289,99350.4,114.393,108.552,-0.60686
6301,99540,114.719,108.86,-0.60275
6313,99729.6,115.043,109.168,-0.59741
6325,99919.2,115.357,109.477,-0.599201
6337,100108.8,115.659,109.785,-0.601521
6349,100298.4,115.966,110.093,-0.607654
6361,100488,116.283,110.4,-0.610821
6373,100677.6,116.606,110.708,-0.611983
6385,100867.2,116.927,111.016,-0.609937
6397,101056.8,117.247,111.3254,-0.610139
6409,101246.4,117.565,111.635,-0.612243
6421,101436,117.885,111.945,-0.612841
6433,101625.6,118.195,112.255,-0.615474
6445,101815.2,118.495,112.564,-0.617662
6457,102004.8,118.804,112.873,-0.617971
6469,102194.4,119.124,113.181,-0.616577
6481,102384,119.45,113.49,-0.609176
6493,102573.6,119.775,113.799,-0.606485
6505,102763.2,120.098,114.11,-0.606924
6517,102952.8,120.414,114.421,-0.606971
6529,103142.4,120.732,114.732,-0.609646
6541,103332,121.044,115.044,-0.616818
6553,103521.6,121.347,115.355,-0.616619
6565,103711.2,121.649,115.665,-0.614914
6577,103900.8,121.964,115.974,-0.614039
6589,104090.4,122.287,116.284,-0.612065
6601,104280,122.613,116.594,-0.611298
6613,104469.6,122.937,116.905,-0.610898
6625,104659.2,123.255,117.217,-0.616695
6637,104848.8,123.573,117.529,-0.615909
6649,105038.4,123.872,117.841,-0.617381
6661,105228,124.173,118.152,-0.61879
6673,105417.6,124.485,118.461,-0.619489
6685,105607.2,124.81,118.771,-0.61653
6697,105796.8,125.135,119.082,-0.614838
6709,105986.4,125.46,119.392,-0.609194
6721,106176,125.787,119.704,-0.605638
6733,106365.6,126.108,120.016,-0.60454
6745,106555.2,126.421,120.331,-0.611932
6757,106744.8,126.732,120.644,-0.616304
6769,106934.4,127.044,120.958,-0.618247
6781,107124,127.355,121.271,-0.619324
6793,107313.6,127.667,121.584,-0.620655
6805,107503.2,127.984,121.898,-0.622873
6817,107692.8,128.303,122.211,-0.619655
6829,107882.4,128.625,122.524,-0.620728
6841,108072,128.944,122.839,-0.621679
6853,108261.6,129.261,123.155,-0.62162
6865,108451.2,129.575,123.471,-0.623152
6877,108640.8,129.875,123.786,-0.623436
6889,108830.4,130.178,124.099,-0.621344
6901,109020,130.494,124.411,-0.620629
6913,109209.6,130.817,124.724,-0.616989
6925,109399.2,131.144,125.037,-0.613113
6937,109588.8,131.471,125.351,-0.609155
6949,109778.4,131.793,125.665,-0.60946
6961,109968,132.109,125.981,-0.614706
6973,110157.6,132.416,126.297,-0.618241
6985,110347.2,132.721,126.612,-0.618965
6997,110536.8,133.038,126.927,-0.619126
7009,110726.4,133.361,127.242,-0.615655
7021,110916,133.683,127.558,-0.617905
7033,111105.6,133.996,127.875,-0.617485
7045,111295.2,134.3,128.19,-0.619768
7057,111484.8,134.611,128.505,-0.618807
7069,111674.4,134.932,128.82,-0.61731
7081,111864,135.259,129.135,-0.612474
7093,112053.6,135.582,129.452,-0.611266
7105,112243.2,135.896,129.769,-0.612186
7117,112432.8,136.201,130.086,-0.613504
7129,112622.4,136.511,130.402,-0.61514
7141,112812,136.831,130.717,-0.610633
7153,113001.6,137.153,131.033,-0.60674
7165,113191.2,137.476,131.35,-0.60999
7177,113380.8,137.789,131.667,-0.612885
7189,113570.4,138.099,131.984,-0.612734
7201,113760,138.412,132.3,-0.614725
7213,113949.6,138.721,132.618,-0.615542
7225,114139.2,139.033,132.933,-0.614915
7237,114328.8,139.352,133.248,-0.611694
7249,114518.4,139.665,133.563,-0.609407
7261,114708,139.983,133.878,-0.608553
7273,114897.6,140.302,134.193,-0.608625
7285,115087.2,140.61,134.507,-0.605839
7297,115276.8,140.916,134.82,-0.603134
7309,115466.4,141.231,135.132,-0.599626
7321,115656,141.56,135.444,-0.595568
7333,115845.6,141.892,135.759,-0.590804
7345,116035.2,142.219,136.073,-0.589461
7357,116224.8,142.532,136.389,-0.587358
7369,116414.4,142.8319,136.705,-0.58683
7381,116604,143.14,137.018,-0.589751
7393,116793.6,143.461,137.331,-0.59028
7405,116983.2,143.789,137.645,-0.585447
7417,117172.8,144.111,137.961,-0.587083
7429,117362.4,144.415,138.277,-0.588081
7441,117552,144.704,138.591,-0.58727
7453,117741.6,145.008,138.902,-0.585893
7465,117931.2,145.331,139.214,-0.581616
7477,118120.8,145.662,139.524,-0.583364
7489,118310.4,145.994,139.837,-0.574004
7501,118500,146.323,140.149,-0.567618
7513,118689.6,146.646,140.464,-0.56841
7525,118879.2,146.962,140.78,-0.565641
7537,119068.8,147.259,141.095,-0.567636
7549,119258.4,147.565,141.409,-0.567312
7561,119448,147.883,141.724,-0.568585
7573,119637.6,148.187,142.038,-0.569236
7585,119827.2,148.49,142.35,-0.568326
7597,120016.8,148.806,142.661,-0.563273
7609,120206.4,149.135,142.972,-0.558209
7621,120396,149.467,143.283,-0.550877
7633,120585.6,149.793,143.597,-0.548585
7645,120775.2,150.111,143.91,-0.546512
7657,120964.8,150.421,144.224,-0.545288
7669,121154.4,150.735,144.539,-0.544085
7681,121344,151.054,144.854,-0.543163
7693,121533.6,151.375,145.168,-0.54047
7705,121723.2,151.684,145.484,-0.536878
7717,121912.8,151.982,145.799,-0.534455
7729,122102.4,152.291,146.112,-0.529575
7741,122292,152.612,146.424,-0.526805
7753,122481.6,152.939,146.7367,-0.522462
7765,122671.2,153.266,147.05,-0.516653
7777,122860.8,153.59,147.366,-0.511198
7789,123050.4,153.9,147.681,-0.505852
7801,123240,154.2,147.996,-0.500368
7813,123429.6,154.51,148.309,-0.501655
7825,123619.2,154.832,148.623,-0.49694
7837,123808.8,155.158,148.937,-0.486582
7849,123998.4,155.483,149.252,-0.477242
7861,124188,155.796,149.566,-0.470698
7873,124377.6,156.092,149.881,-0.471103
7885,124567.2,156.398,150.195,-0.466639
7897,124756.8,156.721,150.507,-0.454875
7909,124946.4,157.05,150.821,-0.449047
7921,125136,157.379,151.135,-0.442673
7933,125325.6,157.701,151.45,-0.444424
7945,125515.2,158.018,151.767,-0.434357
7957,125704.8,158.32,152.083,-0.433055
7969,125894.4,158.63,152.399,-0.427415
7981,126084,158.947,152.713,-0.420395
7993,126273.6,159.253,153.028,-0.41796
8005,126463.2,159.555,153.342,-0.422614
8017,126652.8,159.871,153.654,-0.419772
8029,126842.4,160.198,153.967,-0.413687
8041,127032,160.528,154.281,-0.401879
8053,127221.6,160.852,154.595,-0.398419
8065,127411.2,161.162,154.91,-0.377627
8077,127600.8,161.461,155.223,-0.362722
8089,127790.4,161.772,155.536,-0.374608
8101,127980,162.097,155.849,-0.376807
8113,128169.6,162.426,156.162,-0.381422
8125,128359.2,162.75,156.476,-0.369621
8137,128548.8,163.064,156.791,-0.363964
8149,128738.4,163.364,157.107,-0.348083
8161,128928,163.669,157.418,-0.332038
8173,129117.6,163.988,157.731,-0.347976
8185,129307.2,164.316,158.045,-0.350795
8197,129496.8,164.638,158.359,-0.350536
8209,129686.4,164.957,158.674,-0.338057
8221,129876,165.257,158.988,-0.319615
8233,130065.6,165.556,159.301,-0.301712
8245,130255.2,165.872,159.612,-0.296956
8257,130444.8,166.202,159.924,-0.281861
8269,130634.4,166.532,160.239,-0.278152
8281,130824,166.861,160.552,-0.27932
8293,131013.6,167.172,160.867,-0.266322
8305,131203.2,167.475,161.182,-0.250355
8317,131392.8,167.781,161.495,-0.25567
8329,131582.4,168.099,161.808,-0.259004
8341,131772,168.425,162.122,-0.254232
8353,131961.6,168.745,162.436,-0.236823
8365,132151.2,169.067,162.751,-0.231161
8377,132340.8,169.369,163.066,-0.205056
8389,132530.4,169.675,163.38,-0.219251
8401,132720,169.992,163.694,-0.209645
8413,132909.6,170.318,164.007,-0.206348
8425,133099.2,170.645,164.323,-0.197091
8437,133288.8,170.965,164.638,-0.157715
8449,133478.4,171.274,164.953,-0.137873
8461,133668,171.574,165.268,-0.14594
8473,133857.6,171.883,165.581,-0.149121
8485,134047.2,172.209,165.895,-0.110984
8497,134236.8,172.536,166.209,-0.114339
8509,134426.4,172.863,166.525,-0.107868
8521,134616,173.183,166.841,-0.115831
8533,134805.6,173.497,167.158,-0.092188
8545,134995.2,173.799,167.473,-0.070314
8557,135184.8,174.103,167.788,-0.039729
8569,135374.4,174.421,168.102,-0.061395
8581,135564,174.748,168.418,-0.06426
8593,135753.6,175.073,168.733,-0.050248
8605,135943.2,175.393,169.048,-0.041101
8617,136132.8,175.709,169.366,-0.053387
8629,136322.4,176.008,169.682,-0.062689
8641,136512,176.313,169.997,-0.07044
8653,136701.6,176.628,170.311,-0.052112
8665,136891.2,176.955,170.625,-0.037157
8677,137080.8,177.28,170.941,0.003392
8689,137270.4,177.6,171.257,0.017436
8701,137460,177.922,171.575,0.009719
8713,137649.6,178.224,171.891,0.03046
8725,137839.2,178.525,172.207,0.038402
8737,138028.8,178.838,172.522,0.038483
8749,138218.4,179.16,172.837,0.044669
8761,138408,179.488,173.152,0.049842
8773,138597.6,179.807,173.468,0.081152
8785,138787.2,180.131,173.786,0.116696
8797,138976.8,180.435,174.102,0.120158
8809,139166.4,180.737,174.418,0.104617
8821,139356,181.052,174.733,0.114598
8833,139545.6,181.378,175.048,0.09955
8845,139735.2,181.702,175.364,0.085142
8857,139924.8,182.025,175.682,0.120025
8869,140114.4,182.3449,175.999,0.129598
8881,140304,182.656,176.317,0.144256
8893,140493.6,182.958,176.634,0.14596
8905,140683.2,183.261,176.949,0.169063
8917,140872.8,183.585,177.264,0.170195
8929,141062.4,183.911,177.579,0.165514
8941,141252,184.237,177.896,0.191768
8953,141441.6,184.555,178.213,0.204697
8965,141631.2,184.876,178.531,0.229972
8977,141820.8,185.183,178.849,0.199516
8989,142010.4,185.496,179.166,0.249716
9001,142200,185.816,179.483,0.247673
9013,142389.6,186.139,179.8,0.221065
9025,142579.2,186.455,180.118,0.232347
9037,142768.8,186.765,180.436,0.247811
9049,142958.4,187.069,180.752,0.232306
9061,143148,187.377,181.068,0.209141
9073,143337.6,187.698,181.384,0.155113
9085,143527.2,188.023,181.7,0.157287
9097,143716.8,188.348,182.016,0.207813
9109,143906.4,188.666,182.335,0.207892
9121,144096,188.981,182.652,0.194144
9133,144285.6,189.284,182.97,0.234956
9145,144475.2,189.592,183.285,0.245972
9157,144664.8,189.909,183.601,0.21988
9169,144854.4,190.232,183.918,0.194351
9181,145044,190.558,184.234,0.221073
9193,145233.6,190.877,184.551,0.310445
9205,145423.2,191.199,184.87,0.320618
9217,145612.8,191.507,185.189,0.337593
9229,145802.4,191.811,185.507,0.317875
9241,145992,192.126,185.823,0.337501
9253,146181.6,192.45,186.14,0.263036
9265,146371.2,192.771,186.457,0.271865
9277,146560.8,193.092,186.775,0.258583
9289,146750.4,193.415,187.094,0.287406
9301,146940,193.73,187.413,0.329755
9313,147129.6,194.037,187.732,0.332846
9325,147319.2,194.344,188.05,0.320477
9337,147508.8,194.662,188.368,0.355729
9349,147698.4,194.984,188.686,0.331978
9361,147888,195.303,189.004,0.345099
9373,148077.6,195.616,189.323,0.378657
9385,148267.2,195.921,189.641,0.405543
9397,148456.8,196.229,189.958,0.376442
9409,148646.4,196.546,190.274,0.382413
9421,148836,196.87,190.59,0.370888
9433,149025.6,197.194,190.908,0.370403
9445,149215.2,197.517,191.227,0.389765
9457,149404.8,197.827,191.545,0.3546
9469,149594.4,198.133,191.862,0.368204
9481,149784,198.443,192.179,0.345084
9493,149973.6,198.765,192.496,0.361917
9505,150163.2,199.088,192.813,0.40414
9517,150352.8,199.411,193.131,0.413407
9529,150542.4,199.726,193.45,0.365162
9541,150732,200.039,193.768,0.335635
9553,150921.6,200.354,194.086,0.347969
9565,151111.2,200.675,194.406,0.371161
9577,151300.8,200.992,194.724,0.38427
9589,151490.4,201.298,195.043,0.377793
9601,151680,201.607,195.361,0.336059
9613,151869.6,201.928,195.68,0.328357
9625,152059.2,202.248,195.999,0.344386
9637,152248.8,202.568,196.317,0.374559
9649,152438.4,202.876,196.636,0.343673
9661,152628,203.177,196.954,0.320302
9673,152817.6,203.4849,197.27,0.355953
9685,153007.2,203.808,197.586,0.345642
9697,153196.8,204.134,197.903,0.320436
9709,153386.4,204.458,198.221,0.34791
9721,153576,204.78,198.539,0.359643
9733,153765.6,205.091,198.857,0.392454
9745,153955.2,205.392,199.174,0.323691
9757,154144.8,205.706,199.49,0.343837
9769,154334.4,206.031,199.807,0.303514
9781,154524,206.354,200.125,0.304544
9793,154713.6,206.673,200.442,0.379825
9805,154903.2,206.982,200.761,0.355647
9817,155092.8,207.286,201.077,0.355148
9829,155282.4,207.601,201.394,0.339595
9841,155472,207.925,201.711,0.370273
9853,155661.6,208.251,202.028,0.391161
9865,155851.2,208.573,202.346,0.372698
9877,156040.8,208.882,202.664,0.379054
9889,156230.4,209.184,202.98,0.374657
9901,156420,209.4979,203.297,0.365468
9913,156609.6,209.821,203.612,0.340456
9925,156799.2,210.147,203.929,0.334971
9937,156988.8,210.469,204.247,0.329772
9949,157178.4,210.779,204.564,0.351101
9961,157368,211.079,204.882,0.375397
9973,157557.6,211.389,205.196,0.367781
9985,157747.2,211.711,205.512,0.376024
9997,157936.8,212.0395,205.827,0.340729
10009,158126.4,212.358,206.143,0.33959
10021,158316,212.675,206.461,0.355584
10033,158505.6,212.98,206.778,0.357561
10045,158695.2,213.288,207.093,0.345398
10057,158884.8,213.608,207.408,0.36071
10069,159074.4,213.935,207.724,0.3749
10081,159264,214.257,208.041,0.356799
10093,159453.6,214.575,208.359,0.345197
10105,159643.2,214.883,208.675,0.376547
10117,159832.8,215.189,208.991,0.38801
10129,160022.4,215.505,209.308,0.384997
10141,160212,215.83,209.624,0.378872
10153,160401.6,216.151,209.941,0.392412
10165,160591.2,216.472,210.259,0.411936
10177,160780.8,216.778,210.576,0.3954
10189,160970.4,217.079,210.893,0.373725
10201,161160,217.391,211.208,0.40888
10213,161349.6,217.72,211.5232,0.402479
10225,161539.2,218.049,211.84,0.406943
10237,161728.8,218.368,212.157,0.389114
10249,161918.4,218.686,212.474,0.358927
10261,162108,218.991,212.792,0.412366
10273,162297.6,219.298,213.109,0.404376
10285,162487.2,219.618,213.425,0.371618
10297,162676.8,219.941,213.743,0.3642
10309,162866.4,220.266,214.059,0.389394
10321,163056,220.584,214.377,0.406837
10333,163245.6,220.895,214.696,0.407515
10345,163435.2,221.195,215.013,0.400778
10357,163624.8,221.508,215.329,0.408778
10369,163814.4,221.828,215.644,0.362731
10381,164004,222.153,215.961,0.357872
10393,164193.6,222.476,216.278,0.340225
10405,164383.2,222.798,216.596,0.382056
10417,164572.8,223.117,216.915,0.422622
10429,164762.4,223.433,217.234,0.425613
10441,164952,223.738,217.552,0.398316
10453,165141.6,224.039,217.87,0.395402
10465,165331.2,224.35,218.186,0.411187
10477,165520.8,224.67,218.503,0.396864
10489,165710.4,224.997,218.819,0.39181
10501,165900,225.319,219.137,0.400076
10513,166089.6,225.638,219.455,0.385936
10525,166279.2,225.943,219.772,0.407701
10537,166468.8,226.253,220.089,0.391636
10549,166658.4,226.57,220.405,0.388971
10561,166848,226.89,220.722,0.398617
10573,167037.6,227.213,221.04,0.375024
10585,167227.2,227.529,221.357,0.324431
10597,167416.8,227.839,221.675,0.298682
10609,167606.4,228.149,221.991,0.319121
10621,167796,228.466,222.308,0.326516
10633,167985.6,228.788,222.624,0.351338
10645,168175.2,229.107,222.943,0.362619
10657,168364.8,229.426,223.261,0.449451
10669,168554.4,229.736,223.579,0.546249
10681,168744,230.044,223.896,0.504938
10693,168933.6,230.356,224.212,0.409857
10705,169123.2,230.677,224.529,0.348058
10717,169312.8,230.999,224.846,0.330218
10729,169502.4,231.32,225.163,0.343768
10741,169692,231.643,225.482,0.360845
10753,169881.6,231.96,225.802,0.358333
10765,170071.2,232.271,226.12,0.335546
10777,170260.8,232.583,226.44,0.319848
10789,170450.4,232.894,226.759,0.328503
10801,170640,233.208,227.077,0.344782
10813,170829.6,233.524,227.395,0.349725
10825,171019.2,233.841,227.713,0.381394
10837,171208.8,234.154,228.031,0.352204
10849,171398.4,234.474,228.348,0.296685
10861,171588,234.792,228.666,0.296616
10873,171777.6,235.112,228.985,0.341988
10885,171967.2,235.421,229.304,0.324287
10897,172156.8,235.727,229.621,0.284271
10909,172346.4,236.039,229.938,0.296029
10921,172536,236.359,230.254,0.316198
10933,172725.6,236.682,230.57,0.297243
10945,172915.2,237.006,230.887,0.285487
10957,173104.8,237.326,231.205,0.280063
10969,173294.4,237.643,231.522,0.316698
10981,173484,237.953,231.84,0.310194
10993,173673.6,238.267,232.159,0.30927
11005,173863.2,238.585,232.476,0.301614
11017,174052.8,238.907,232.794,0.321739
11029,174242.4,239.225,233.112,0.304362
11041,174432,239.54,233.432,0.298877
11053,174621.6,239.848,233.75,0.314349
11065,174811.2,240.1617,234.069,0.276096
11077,175000.8,240.48,234.387,0.274801
11089,175190.4,240.801,234.705,0.294584
11101,175380,241.122,235.024,0.326317
11113,175569.6,241.438,235.344,0.310035
11125,175759.2,241.748,235.663,0.327328
11137,175948.8,242.06,235.982,0.346353
11149,176138.4,242.377,236.301,0.321363
11161,176328,242.699,236.619,0.321873
11173,176517.6,243.018,236.939,0.300404
11185,176707.2,243.334,237.259,0.267829
11197,176896.8,243.641,237.579,0.246241
11209,177086.4,243.951,237.897,0.239458
11221,177276,244.268,238.216,0.266829
11233,177465.6,244.591,238.535,0.270981
11245,177655.2,244.913,238.855,0.299911
11257,177844.8,245.231,239.174,0.283127
11269,178034.4,245.551,239.495,0.273861
11281,178224,245.865,239.817,0.266682
11293,178413.6,246.178,240.139,0.283566
11305,178603.2,246.489,240.459,0.282846
11317,178792.8,246.804,240.78,0.305239
11329,178982.4,247.12,241.101,0.310236
11341,179172,247.437,241.422,0.255066
11353,179361.6,247.752,241.743,0.240907
11365,179551.2,248.068,242.064,0.239444
11377,179740.8,248.381,242.385,0.237742
11389,179930.4,248.697,242.704,0.224146
11401,180120,249.009,243.024,0.206984
11413,180309.6,249.3256,243.344,0.209053
11425,180499.2,249.641,243.662,0.191866
11437,180688.8,249.957,243.982,0.182992
11449,180878.4,250.266,244.3,0.188801
11461,181068,250.584,244.619,0.173264
11473,181257.6,250.903,244.937,0.178931
11485,181447.2,251.222,245.255,0.191825
11497,181636.8,251.537,245.573,0.182235
11509,181826.4,251.851,245.892,0.182487
11521,182016,252.166,246.21,0.203826
11533,182205.6,252.486,246.526,0.203619
11545,182395.2,252.806,246.845,0.200669
11557,182584.8,253.124,247.163,0.191065
11569,182774.4,253.43,247.481,0.196668
11581,182964,253.735,247.798,0.197219
11593,183153.6,254.052,248.113,0.178841
11605,183343.2,254.375,248.429,0.172833
11617,183532.8,254.697,248.745,0.169492
11629,183722.4,255.017,249.062,0.175074
11641,183912,255.341,249.38,0.179868
11653,184101.6,255.656,249.698,0.19659
11665,184291.2,255.97,250.016,0.194512
11677,184480.8,256.288,250.335,0.188808
11689,184670.4,256.603,250.654,0.212547
11701,184860,256.922,250.974,0.221858
11713,185049.6,257.229,251.293,0.233722
11725,185239.2,257.539,251.612,0.251906
11737,185428.8,257.858,251.93,0.252031
11749,185618.4,258.179,252.248,0.258982
11761,185808,258.498,252.567,0.262007
11773,185997.6,258.819,252.887,0.250515
11785,186187.2,259.134,253.207,0.260246
11797,186376.8,259.45,253.527,0.266917
11809,186566.4,259.767,253.847,0.293199
11821,186756,260.083,254.168,0.313547
11833,186945.6,260.395,254.489,0.31306
11845,187135.2,260.71,254.811,0.309779
11857,187324.8,261.026,255.132,0.293426
11869,187514.4,261.336,255.452,0.293787
11881,187704,261.655,255.773,0.299228
11893,187893.6,261.975,256.093,0.2885
11905,188083.2,262.301,256.413,0.28759
11917,188272.8,262.611,256.736,0.284371
11929,188462.4,262.911,257.057,0.277876
11941,188652,263.222,257.376,0.269286
11953,188841.6,263.541,257.695,0.266066
11965,189031.2,263.866,258.014,0.264968
11977,189220.8,264.189,258.334,0.261615
11989,189410.4,264.501,258.655,0.259198
12001,189600,264.81,258.974,0.261087
12013,189789.6,265.126,259.293,0.2701
12025,189979.2,265.443,259.613,0.272902
12037,190168.8,265.766,259.933,0.264382
12049,190358.4,266.089,260.253,0.257316
12061,190548,266.407,260.574,0.241918
12073,190737.6,266.712,260.897,0.235068
12085,190927.2,267.025,261.217,0.233761
12097,191116.8,267.3442,261.538,0.238322
12109,191306.4,267.664,261.858,0.23382
12121,191496,267.983,262.179,0.22468
12133,191685.6,268.29,262.499,0.229641
12145,191875.2,268.599,262.82,0.234507
12157,192064.8,268.918,263.139,0.226076
12169,192254.4,269.237,263.457,0.214065
12181,192444,269.564,263.777,0.208581
12193,192633.6,269.887,264.1,0.201343
12205,192823.2,270.206,264.422,0.204424
12217,193012.8,270.511,264.745,0.200966
12229,193202.4,270.812,265.066,0.20978
12241,193392,271.122,265.386,0.211206
12253,193581.6,271.44,265.705,0.205943
12265,193771.2,271.767,266.025,0.200644
12277,193960.8,272.095,266.345,0.196966
12289,194150.4,272.402,266.666,0.193281
12301,194340,272.702,266.986,0.209375
12313,194529.6,273.017,267.304,0.208472
12325,194719.2,273.337,267.623,0.202141
12337,194908.8,273.664,267.941,0.191665
12349,195098.4,273.993,268.261,0.202041
12361,195288,274.318,268.584,0.229258
12373,195477.6,274.636,268.908,0.241596
12385,195667.2,274.948,269.232,0.242517
12397,195856.8,275.258,269.557,0.242069
12409,196046.4,275.571,269.882,0.23902
12421,196236,275.881,270.206,0.234443
12433,196425.6,276.196,270.531,0.231437
12445,196615.2,276.51,270.854,0.222214
12457,196804.8,276.824,271.178,0.22234
12469,196994.4,277.137,271.5,0.221268
12481,197184,277.454,271.822,0.219236
12493,197373.6,277.774,272.145,0.223698
12505,197563.2,278.091,272.468,0.225881
12517,197752.8,278.406,272.79,0.223898
12529,197942.4,278.719,273.112,0.226186
12541,198132,279.035,273.435,0.233152
12553,198321.6,279.349,273.756,0.23667
12565,198511.2,279.664,274.079,0.237216
12577,198700.8,279.98,274.399,0.233659
12589,198890.4,280.295,274.72,0.227831
12601,199080,280.603,275.04,0.223424
12613,199269.6,280.918,275.359,0.222873
12625,199459.2,281.237,275.677,0.221631
12637,199648.8,281.538,275.994,0.210359
12649,199838.4,281.843,276.308,0.20183
12661,200028,282.163,276.62,0.205312
12673,200217.6,282.484,276.933,0.198451
12685,200407.2,282.817,277.245,0.210208
12697,200596.8,283.131,277.559,0.218888
12709,200786.4,283.44,277.872,0.221352
12721,200976,283.758,278.184,0.231338
12733,201165.6,284.082,278.4974,0.237644
12745,201355.2,284.405,278.81,0.237644
12757,201544.8,284.729,279.125,0.249791
12769,201734.4,285.036,279.441,0.247035
12781,201924,285.346,279.755,0.247897
12793,202113.6,285.667,280.07,0.252615
12805,202303.2,285.985,280.385,0.257691
12817,202492.8,286.31,280.701,0.267697
12829,202682.4,286.62,281.017,0.262586
12841,202872,286.93,281.334,0.259764
12853,203061.6,287.25,281.65,0.267662
12865,203251.2,287.569,281.966,0.272258
12877,203440.8,287.883,282.283,0.274337
12889,203630.4,288.19,282.599,0.269299
12901,203820,288.51,282.915,0.266709
12913,204009.6,288.832,283.231,0.277218
12925,204199.2,289.155,283.55,0.290241
12937,204388.8,289.46,283.868,0.279542
12949,204578.4,289.761,284.184,0.261837
12961,204768,290.078,284.499,0.267905
12973,204957.6,290.399,284.814,0.270598
12985,205147.2,290.726,285.129,0.285609
12997,205336.8,291.039,285.446,0.285325
13009,205526.4,291.35,285.762,0.285957
13021,205716,291.669,286.076,0.290061
13033,205905.6,291.992,286.392,0.29792
13045,206095.2,292.317,286.71,0.309491
13057,206284.8,292.628,287.029,0.312817
13069,206474.4,292.93,287.346,0.295249
13081,206664,293.204,287.661,0.295641
13093,206853.6,293.204,287.965,0.369885
13105,207043.2,293.191,288.249,0.39868
13117,207232.8,293.166,288.511,0.382268
13129,207422.4,293.145,288.751,0.373593
13141,207612,293.141,288.973,0.36984
13153,207801.6,293.149,289.178,0.364721
13165,207991.2,293.162,289.369,0.358785
13177,208180.8,293.166,289.547,0.35352
13189,208370.4,293.147,289.712,0.359077
13201,208560,293.135,289.863,0.365036
13213,208749.6,293.14,290.001,0.360677
13225,208939.2,293.151,290.129,0.351824
13237,209128.8,293.158,290.25,0.347966
13249,209318.4,293.149,290.362,0.342947
13261,209508,293.133,290.463,0.337293
13273,209697.6,293.132,290.556,0.331713
13285,209887.2,293.141,290.641,0.329912
13297,210076.8,293.151,290.722,0.329883
13309,210266.4,293.16,290.797,0.336739
13321,210456,293.16,290.868,0.341895
13333,210645.6,293.153,290.934,0.336182
13345,210835.2,293.1537,290.994,0.335538
13357,211024.8,293.158,291.05,0.339182
13369,211214.4,293.154,291.102,0.334248
13381,211404,293.143,291.15,0.329777
13393,211593.6,293.143,291.193,0.330137
13405,211783.2,293.15,291.233,0.337405
13417,211972.8,293.157,291.271,0.343377
13429,212162.4,293.148,291.306,0.341146
13441,212352,293.137,291.337,0.337949
13453,212541.6,293.139,291.364,0.334511
13465,212731.2,293.147,291.389,0.330251
13477,212920.8,293.155,291.415,0.331049
13489,213110.4,293.149,291.438,0.330557
13501,213300,293.138,291.458,0.328003
13513,213489.6,293.14,291.476,0.329639
13525,213679.2,293.146,291.492,0.331741
13537,213868.8,293.153,291.508,0.334074
13549,214058.4,293.152,291.523,0.335019
13561,214248,293.146,291.537,0.333724
13573,214437.6,293.145,291.549,0.333311
13585,214627.2,293.151,291.56,0.336129
13597,214816.8,293.161,291.57,0.338884
13609,215006.4,293.16,291.582,0.339605
13621,215196,293.145,291.592,0.338611
13633,215385.6,293.142,291.6,0.337514
13645,215575.2,293.147,291.607,0.337851
13657,215764.8,293.154,291.613,0.337382
13669,215954.4,293.16,291.621,0.338232
13681,216144,293.156,291.628,0.342531
13693,216333.6,293.142,291.635,0.342103
13705,216523.2,293.137,291.637,0.342827
13717,216712.8,293.142,291.641,0.344093
13729,216902.4,293.15,291.644,0.345889
13741,217092,293.163,291.648,0.34424
13753,217281.6,293.154,291.653,0.340737
13765,217471.2,293.143,291.656,0.338208
13777,217660.8,293.141,291.658,0.332494
13789,217850.4,293.145,291.659,0.33091
13801,218040,293.154,291.661,0.328986
13813,218229.6,293.158,291.664,0.33217
13825,218419.2,293.15,291.667,0.332635
13837,218608.8,293.14,291.668,0.328206
13849,218798.4,293.137,291.669,0.327578
13861,218988,293.143,291.668,0.325321
13873,219177.6,293.151,291.669,0.324371
13885,219367.2,293.157,291.67,0.32167
13897,219556.8,293.149,291.672,0.323909
13909,219746.4,293.141,291.672,0.322625
13921,219936,293.141,291.671,0.320391
13933,220125.6,293.147,291.672,0.318462
13945,220315.2,293.151,291.672,0.323259
13957,220504.8,293.162,291.673,0.324634
13969,220694.4,293.153,291.675,0.326805
13981,220884,293.142,291.676,0.328699
13993,221073.6,293.145,291.676,0.329119
14005,221263.2,293.149,291.675,0.332189
14017,221452.8,293.155,291.677,0.330708
14029,221642.4,293.152,291.678,0.328744
14041,221832,293.147,291.679,0.327253
14053,222021.6,293.147,291.679,0.328606
14065,222211.2,293.151,291.678,0.328122
14077,222400.8,293.155,291.68,0.329607
14089,222590.4,293.155,291.682,0.331956
14101,222780,293.152,291.6827,0.332013
14113,222969.6,293.154,291.685,0.331604
14125,223159.2,293.157,291.687,0.332283
14137,223348.8,293.148,291.688,0.332323
14149,223538.4,293.141,291.688,0.332397
14161,223728,293.142,291.687,0.339671
14173,223917.6,293.148,291.687,0.33864
14185,224107.2,293.152,291.688,0.338795
14197,224296.8,293.155,291.688,0.340016
14209,224486.4,293.143,291.69,0.337193
14221,224676,293.137,291.688,0.334954
14233,224865.6,293.141,291.688,0.335421
14245,225055.2,293.15,291.686,0.333665
14257,225244.8,293.154,291.687,0.335352
14269,225434.4,293.154,291.687,0.33868
14281,225624,293.145,291.687,0.338628
14293,225813.6,293.143,291.686,0.333964
14305,226003.2,293.145,291.685,0.333832
14317,226192.8,293.152,291.684,0.333142
14329,226382.4,293.157,291.684,0.330579
14341,226572,293.157,291.685,0.329715
14353,226761.6,293.147,291.685,0.331166
14365,226951.2,293.147,291.684,0.332306
14377,227140.8,293.151,291.684,0.334489
14389,227330.4,293.157,291.684,0.335664
14401,227520,293.16,291.685,0.335335
14413,227709.6,293.153,291.685,0.335468
14425,227899.2,293.146,291.686,0.332571
14437,228088.8,293.141,291.684,0.328569
14449,228278.4,293.144,291.683,0.329376
14461,228468,293.149,291.682,0.336615
14473,228657.6,293.155,291.682,0.336413
14485,228847.2,293.147,291.682,0.336264
14497,229036.8,293.136,291.68,0.334836
14509,229226.4,293.136,291.678,0.327541
14521,229416,293.144,291.674,0.324208
14533,229605.6,293.151,291.673,0.324928
14545,229795.2,293.158,291.673,0.324669
14557,229984.8,293.153,291.673,0.326892
14569,230174.4,293.142,291.673,0.325377
14581,230364,293.141,291.672,0.320408
14593,230553.6,293.147,291.67,0.321376
14605,230743.2,293.153,291.669,0.325822
14617,230932.8,293.161,291.67,0.323651
14629,231122.4,293.151,291.671,0.326708
14641,231312,293.142,291.67,0.327336
14653,231501.6,293.14,291.669,0.326352
14665,231691.2,293.146,291.668,0.326968
14677,231880.8,293.152,291.668,0.326588
14689,232070.4,293.155,291.669,0.328321
14701,232260,293.146,291.669,0.328068
14713,232449.6,293.141,291.667,0.323306
14725,232639.2,293.144,291.666,0.321527
14737,232828.8,293.15,291.665,0.322743
14749,233018.4,293.154,291.665,0.325374
14761,233208,293.158,291.666,0.324107
14773,233397.6,293.149,291.666,0.324706
14785,233587.2,293.142,291.665,0.323848
14797,233776.8,293.145,291.665,0.320992
14809,233966.4,293.15,291.663,0.318528
14821,234156,293.155,291.664,0.32424
14833,234345.6,293.159,291.665,0.329146
14845,234535.2,293.148,291.6668,0.329479
14857,234724.8,293.143,291.666,0.324193
14869,234914.4,293.146,291.665,0.319535
14881,235104,293.151,291.665,0.321925
14893,235293.6,293.156,291.665,0.324464
14905,235483.2,293.15,291.666,0.328311
14917,235672.8,293.145,291.665,0.329152
14929,235862.4,293.147,291.665,0.326555
14941,236052,293.152,291.665,0.330453
14953,236241.6,293.159,291.665,0.338919
14965,236431.2,293.155,291.665,0.336045
14975,236589.2,293.155,291.667,0.335515