File: i_data_processed/27Sep/6.88wt%_climb_proc.txt
 Index  Time(s)  Furnace Temperature(K)  Sample Temperature(K)  HeatFlow(mW)  Q_Corrected       Fc
  6001 101400.0              108.577             108.947     -0.154553     0.329436      NaN
  6014 101619.7              108.57             108.933     -0.157705     0.342769      NaN
  6027 101839.4              108.563             108.919     -0.175279     0.318192      NaN
  6040 102059.1              108.556             108.906     -0.184078     0.305168      NaN
  6053 102278.8              108.548             108.893     -0.202913     0.299117      NaN
  6066 102498.5              108.539             108.88     -0.219556     0.266187      NaN
  6079 102718.2              108.529             108.868     -0.206715     0.285627      NaN
  6092 102937.9              108.518             108.855     -0.218969     0.274713      NaN
  6105 103157.6              108.509             108.843     -0.225579     0.264181      NaN
  6118 103377.3              108.499             108.831     -0.239403     0.247674      NaN
  6131 103597.0              108.489             108.819     -0.239112     0.255806      NaN
  6144 103816.7              108.481             108.807     -0.232856     0.266817      NaN
  6157 104036.4              108.472             108.796     -0.243547     0.251583      NaN
  6170 104256.1              108.464             108.785     -0.253925     0.244099      NaN
  6183 104475.8              108.456             108.774     -0.255202     0.235177      NaN
  6196 104695.5              108.448             108.763     -0.264326     0.224610      NaN
  6209 104915.2              108.439             108.752     -0.257441     0.233771      NaN
  6222 105134.9              108.431             108.741     -0.275359     0.218441      NaN
  6235 105354.6              108.423             108.731     -0.283859     0.206636      NaN
  6248 105574.3              108.546             108.722     -0.293298     0.202580      NaN
  6261 105794.0              109.073             108.731     -0.496438    -0.006967      NaN
  6274 106013.7              109.678             108.775     -0.990666    -0.493325      NaN
  6287 106233.4              110.166             108.85     -1.667120    -1.173705      NaN
  6300 106453.1              110.564             108.949     -2.327342    -1.762735      NaN
  6313 106672.8              110.924             109.067     -2.887816    -2.222645      NaN
  6326 106892.5              111.279             109.202     -3.380871    -2.621871      NaN
  6339 107112.2              111.641             109.35     -3.813466    -3.009276      NaN
  6352 107331.9              112.007             109.512     -4.203758    -3.355809      NaN
  6365 107551.6              112.375             109.688     -4.556504    -3.668369      NaN
  6378 107771.3              112.743             109.876     -4.893871    -3.977180      NaN
  6391 107991.0              113.11             110.076     -5.215869    -4.269233      NaN
  6404 108210.7              113.478             110.287     -5.526243    -4.543333      NaN
  6417 108430.4              113.847             110.508     -5.814755    -4.802549      NaN
  6430 108650.1              114.214             110.738     -6.061760    -5.018883      NaN
  6443 108869.8              114.58             110.977     -6.320490    -5.256038      NaN
  6456 109089.5              114.948             111.225     -6.562487    -5.477836      NaN
  6469 109309.2              115.313             111.48     -6.788192    -5.672439      NaN
  6482 109528.9              115.676             111.743     -6.988434    -5.853397      NaN
  6495 109748.6              116.042             112.012     -7.203583    -6.047548      NaN
  6508 109968.3              116.411             112.286     -7.375714    -6.204616      NaN
  6521 110188.0              116.781             112.567     -7.563325    -6.362373      NaN
  6534 110407.7              117.149             112.853     -7.744386    -6.535626      NaN
  6547 110627.4              117.515             113.145     -7.908972    -6.688838      NaN
  6560 110847.1              117.88             113.44     -8.069007    -6.825486      NaN
  6573 111066.8              118.248             113.741     -8.228755    -6.974677      NaN
  6586 111286.5              118.616             114.045     -8.374938    -7.116128      NaN
  6599 111506.2              118.978             114.354     -8.530486    -7.254658      NaN
  6612 111725.9              119.34             114.666     -8.659039    -7.386420      NaN
  6625 111945.6              119.712             114.981     -8.802486    -7.505530      NaN
  6638 112165.3              120.084             115.299     -8.932239    -7.637100      NaN
  6651 112385.0              120.451             115.621     -9.079221    -7.768908      NaN
  6664 112604.7              120.816             115.945     -9.233148    -7.923247      NaN
  6677 112824.4              121.181             116.271     -9.361311    -8.040546      NaN
  6690 113044.1              121.545             116.6     -9.511903    -8.183016      NaN
  6703 113263.8              121.913             116.931     -9.658793    -8.337236      NaN
  6716 113483.5              122.28             117.265     -9.829686    -8.495953      NaN
  6729 113703.2              122.646             117.602    -10.0082    -8.675069      NaN
  6742 113922.9              123.012             117.938    -10.1828    -8.843405      NaN
  6755 114142.6              123.377             118.277    -10.391    -9.041138      NaN
  6768 114362.3              123.74             118.617    -10.6045    -9.261672      NaN
  6781 114582.0              124.11             118.959    -10.8523    -9.503358      NaN
  6794 114801.7              124.479             119.302    -11.1044    -9.745348      NaN
  6807 115021.4              124.844             119.646    -11.4027   -10.0505      NaN
  6820 115241.1              125.21             119.991    -11.7171   -10.3763      NaN
  6833 115460.8              125.574             120.338    -12.0329   -10.684      NaN
  6846 115680.5              125.94             120.686    -12.3407   -10.9875      NaN
  6859 115900.2              126.31             121.036    -12.5806   -11.2311      NaN
  6872 116119.9              126.675             121.384    -12.7704   -11.4172      NaN
  6885 116339.6              127.042             121.735    -12.8235   -11.4682      NaN
  6898 116559.3              127.411             122.087    -12.7539   -11.3969      NaN
  6911 116779.0              127.774             122.439    -12.5788   -11.2174      NaN
  6924 116998.7              128.136             122.791    -12.3815   -11.0285      NaN
  6937 117218.4              128.505             123.145    -12.2239   -10.8746      NaN
  6950 117438.1              128.874             123.499    -12.1299   -10.7738      NaN
  6963 117657.8              129.241             123.855    -12.0794   -10.7351      NaN
  6976 117877.5              129.608             124.211    -12.0832   -10.7314      NaN
  6989 118097.2              129.972             124.566    -12.0944   -10.7464      NaN
  7002 118316.9              130.334             124.922    -12.105   -10.7641      NaN
  7015 118536.6              130.7             125.279    -12.1234   -10.7841      NaN
  7028 118756.3              131.069             125.636    -12.1583   -10.8221      NaN
  7041 118976.0              131.436             125.993    -12.1838   -10.8383      NaN
  7054 119195.7              131.803             126.35    -12.1972   -10.8583      NaN
  7067 119415.4              132.166             126.709    -12.234   -10.8959      NaN
  7080 119635.1              132.529             127.068    -12.2487   -10.9221      NaN
  7093 119854.8              132.898             127.426    -12.2662   -10.9441      NaN
  7106 120074.5              133.268             127.784    -12.3052   -10.9776      NaN
  7119 120294.2              133.629             128.143    -12.3181   -10.9978      NaN
  7132 120513.9              133.986             128.501    -12.3372   -11.0098      NaN
  7145 120733.6              134.345             128.858    -12.3495   -11.0278      NaN
  7158 120953.3              134.711             129.215    -12.3477   -11.0461      NaN
  7171 121173.0              135.079             129.572    -12.3414   -11.0335      NaN
  7184 121392.7              135.444             129.928    -12.3368   -11.0309      NaN
  7197 121612.4              135.809             130.284    -12.3601   -11.0493      NaN
  7210 121832.1              136.175             130.64    -12.3627   -11.0609      NaN
  7223 122051.8              136.541             130.994    -12.3658   -11.0617      NaN
  7236 122271.5              136.906             131.348    -12.354   -11.0613      NaN
  7249 122491.2              137.271             131.701    -12.3599   -11.0575      NaN
  7262 122710.9              137.637             132.054    -12.361   -11.0661      NaN
  7275 122930.6              138.003             132.407    -12.3613   -11.0833      NaN
  7288 123150.3              138.373             132.76    -12.3448   -11.0632      NaN
  7301 123370.0              138.733             133.111    -12.3561   -11.0694      NaN
  7314 123589.7              139.089             133.461    -12.3491   -11.0684      NaN
  7327 123809.4              139.464             133.811    -12.3381   -11.067      NaN
  7340 124029.1              139.85             134.16    -12.3262   -11.0515      NaN
  7353 124248.8              140.231             134.513    -12.3732   -11.1005      NaN
  7366 124468.5              140.597             134.867    -12.4353   -11.1707      NaN
  7379 124688.2              140.936             135.221    -12.4888   -11.2177      NaN
  7392 124907.9              141.295             135.572    -12.4765   -11.2182      NaN
  7405 125127.6              141.679             135.924    -12.4809   -11.2269      NaN
  7418 125347.3              142.064             136.278    -12.5141   -11.2502      NaN
  7431 125567.0              142.442             136.635    -12.5709   -11.3116      NaN
  7444 125786.7              142.812             136.995    -12.6618   -11.4073      NaN
  7457 126006.4              143.178             137.355    -12.7312   -11.4838      NaN
  7470 126226.1              143.542             137.717    -12.8077   -11.5644      NaN
  7483 126445.8              143.899             138.08    -12.8788   -11.6321      NaN
  7496 126665.5              144.262             138.443    -12.9108   -11.6707      NaN
  7509 126885.2              144.633             138.807    -12.9479   -11.7151      NaN
  7522 127104.9              145.002             139.172    -12.9897   -11.7577      NaN
  7535 127324.6              145.373             139.539    -13.0461   -11.8231      NaN
  7548 127544.3              145.734             139.906    -13.0798   -11.8563      NaN
  7561 127764.0              146.089             140.273    -13.1264   -11.8959      NaN
  7574 127983.7              146.451             140.639    -13.1329   -11.8996      NaN
  7587 128203.4              146.821             141.005    -13.1354   -11.9118      NaN
  7600 128423.1              147.193             141.372    -13.1538   -11.9325      NaN
  7613 128642.8              147.564             141.741    -13.1785   -11.955      NaN
  7626 128862.5              147.93             142.109    -13.1844   -11.9671      NaN
  7639 129082.2              148.293             142.478    -13.1998   -11.9916      NaN
  7652 129301.9              148.651             142.847    -13.1788   -11.9695      NaN
  7665 129521.6              149.012             143.214    -13.1586   -11.9489      NaN
  7678 129741.3              149.379             143.583    -13.0892   -11.8792      NaN
  7691 129961.0              149.751             143.95    -13.0031   -11.8065      NaN
  7704 130180.7              150.12             144.319    -12.9106   -11.7159      NaN
  7717 130400.4              150.486             144.688    -12.7652   -11.5709      NaN
  7730 130620.1              150.847             145.057    -12.5786   -11.3802      NaN
  7743 130839.8              151.213             145.426    -12.2973   -11.1083      NaN
  7756 131059.5              151.582             145.794    -11.9383   -10.7539      NaN
  7769 131279.2              151.948             146.164    -11.4839   -10.3051      NaN
  7782 131498.9              152.31             146.532    -10.8817    -9.704507      NaN
  7795 131718.6              152.675             146.901    -10.1171    -8.939691      NaN
  7808 131938.3              153.04             147.269     -9.133619    -7.961260      NaN
  7821 132158.0              153.402             147.637     -7.906494    -6.741153      NaN
  7834 132377.7              153.771             148.006     -6.319857    -5.159522      NaN
  7847 132597.4              154.142             148.374     -4.313711    -3.155148      NaN
  7860 132817.1              154.514             148.742     -1.724748    -0.568439      NaN
  7873 133036.8              154.884             149.112      1.573118     2.726195      NaN
  7886 133256.5              155.245             149.482      5.777794     6.925925      NaN
  7899 133476.2              155.606             149.851     11.0465    12.1976      NaN
  7912 133695.9              155.972             150.22     17.4131    18.5487      NaN
  7925 133915.6              156.338             150.59     24.6711    25.7856      NaN
  7938 134135.3              156.701             150.96     32.2703    33.3835      NaN
  7951 134355.0              157.068             151.33     39.1055    40.2102      NaN
  7964 134574.7              157.438             151.7     43.7573    44.867      NaN
  7977 134794.4              157.809             152.071     44.7611    45.8757      NaN
  7990 135014.1              158.175             152.441     41.3987    42.493      NaN
  8003 135233.8              158.534             152.81     34.2342    35.3265      NaN
  8016 135453.5              158.894             153.179     24.8257    25.9244      NaN
  8029 135673.2              159.262             153.546     15.1094    16.2142      NaN
  8042 135892.9              159.632             153.914      6.549921     7.643288      NaN
  8055 136112.6              160.004             154.282     -0.090169     0.999243      NaN
  8068 136332.3              160.371             154.65     -4.749446    -3.663729      NaN
  8081 136552.0              160.729             155.017     -7.707075    -6.636817      NaN
  8094 136771.7              161.091             155.384     -9.484838    -8.419661      NaN
  8107 136991.4              161.458             155.749    -10.4799    -9.424587      NaN
  8120 137211.1              161.83             156.116    -11.0435    -9.998925      NaN
  8133 137430.8              162.201             156.483    -11.307   -10.2441      NaN
  8146 137650.5              162.563             156.85    -11.503   -10.4399      NaN
  8159 137870.2              162.924             157.218    -11.5899   -10.5173      NaN
  8172 138089.9              163.288             157.584    -11.644   -10.5909      NaN
  8185 138309.6              163.658             157.95    -11.7037   -10.6717      NaN
  8198 138529.3              164.03             158.317    -11.7215   -10.6966      NaN
  8211 138749.0              164.398             158.684    -11.7509   -10.7193      NaN
  8224 138968.7              164.758             159.051    -11.785   -10.7489      NaN
  8237 139188.4              165.123             159.418    -11.7997   -10.8074      NaN
  8250 139408.1              165.491             159.785    -11.792   -10.7876      NaN
  8263 139627.8              165.857             160.153    -11.7996   -10.8024      NaN
  8276 139847.5              166.222             160.52    -11.8194   -10.8517      NaN
  8289 140067.2              166.586             160.887    -11.8599   -10.8664      NaN
  8302 140286.9              166.954             161.253    -11.8465   -10.8941      NaN
  8315 140506.6              167.319             161.62    -11.8658   -10.9079      NaN
  8328 140726.3              167.684             161.987    -11.8679   -10.9098      NaN
  8341 140946.0              168.05             162.353    -11.9132   -10.9856      NaN
  8354 141165.7              168.422             162.72    -11.9332   -11.0295      NaN
  8367 141385.4              168.792             163.087    -11.9596   -11.0248      NaN
  8380 141605.1              169.157             163.455    -11.9538   -11.016      NaN
  8393 141824.8              169.522             163.823    -11.9734   -11.0271      NaN
  8406 142044.5              169.89             164.19    -12.0091   -11.1103      NaN
  8419 142264.2              170.259             164.559    -12.0589   -11.1351      NaN
  8432 142483.9              170.618             164.928    -12.0715   -11.1501      NaN
  8445 142703.6              170.979             165.295    -12.0874   -11.1574      NaN
  8458 142923.3              171.346             165.661    -12.1031   -11.214      NaN
  8471 143143.0              171.715             166.029    -12.1187   -11.2527      NaN
  8484 143362.7              172.078             166.397    -12.1371   -11.2728      NaN
  8497 143582.4              172.443             166.764    -12.1669   -11.3261      NaN
  8510 143802.1              172.812             167.13    -12.2125   -11.3959      NaN
  8523 144021.8              173.182             167.498    -12.315   -11.5251      NaN
  8536 144241.5              173.549             167.864    -12.3958   -11.6012      NaN
  8549 144461.2              173.912             168.231    -12.5492   -11.7653      NaN
  8562 144680.9              174.277             168.599    -12.7611   -11.9887      NaN
  8575 144900.6              174.646             168.966    -13.0536   -12.2971      NaN
  8588 145120.3              175.015             169.333    -13.4303   -12.6524      NaN
  8601 145340.0              175.377             169.701    -13.7815   -12.9939      NaN
  8614 145559.7              175.74             170.069    -13.9954   -13.2777      NaN
  8627 145779.4              176.109             170.436    -13.626   -12.8782      NaN
  8640 145999.1              176.479             170.803    -12.5749   -11.8606      NaN
  8653 146218.8              176.844             171.171    -10.7778   -10.0276      NaN
  8666 146438.5              177.206             171.539    -11.5589   -10.88      NaN
  8679 146658.2              177.572             171.905    -12.0119   -11.3564      NaN
  8692 146877.9              177.942             172.273    -12.2925   -11.6702      NaN
  8705 147097.6              178.313             172.642    -12.3914   -11.7545      NaN
  8718 147317.3              178.677             173.01    -12.3924   -11.7349      NaN
  8731 147537.0              179.039             173.377    -12.5731   -11.9321      NaN
  8744 147756.7              179.399             173.745    -12.7105   -12.1176      NaN
  8757 147976.4              179.761             174.112    -12.837   -12.2358      NaN
  8770 148196.1              180.13             174.478    -13.0252   -12.437      NaN
  8783 148415.8              180.503             174.844    -13.4036   -12.7885      NaN
  8796 148635.5              180.875             175.211    -14.2897   -13.6742 0.790749
  8809 148855.2              181.241             175.579    -16.9538   -16.3142 0.790333
  8822 149074.9              181.606             175.947    -27.6498   -27.1235 0.789915
  8835 149294.6              181.969             176.313    -57.7087   -57.1761 0.789498
  8848 149514.3              182.33             176.677   -102.146  -101.494 0.789082
  8861 149734.0              182.693             177.039   -144.508  -143.925 0.788667
  8874 149953.7              183.064             177.4   -161.916  -161.333 0.788251
  8887 150173.4              183.436             177.762   -163.018  -162.559 0.787833
  8900 150393.1              183.804             178.124   -141.559  -141.064 0.787412
  8913 150612.8              184.163             178.491    -67.2507   -66.6788 0.786985
  8926 150832.5              184.523             178.858    -37.5073   -36.9876 0.786555
  8939 151052.2              184.89             179.226    -25.1766   -24.6164 0.786123
  8952 151271.9              185.263             179.594    -20.0059   -19.5401 0.785689
  8965 151491.6              185.634             179.962    -17.7315   -17.2495 0.785252
  8978 151711.3              186.001             180.33    -16.911   -16.4024 0.784814
  8991 151931.0              186.364             180.699    -16.5559   -16.0734 0.784373
  9004 152150.7              186.722             181.067    -16.4346   -15.8967 0.783931
  9017 152370.4              187.086             181.434    -16.4078   -15.8493 0.783488
  9030 152590.1              187.458             181.802    -16.3343   -15.8179 0.783043
  9043 152809.8              187.829             182.17    -16.4875   -16.066 0.782595
  9056 153029.5              188.196             182.538    -16.4919   -16.023 0.782145
  9069 153249.2              188.553             182.905    -16.5853   -16.1696 0.781693
  9082 153468.9              188.913             183.272    -16.5204   -16.1312 0.781240
  9095 153688.6              189.283             183.638    -16.4495   -16.0175 0.780785
  9108 153908.3              189.657             184.004    -16.4998   -16.0923 0.780329
  9121 154128.0              190.029             184.371    -16.5543   -16.1788 0.779869
  9134 154347.7              190.391             184.738    -16.6076   -16.2982 0.779407
  9147 154567.4              190.755             185.106    -16.6825   -16.3794 0.778941
  9160 154787.1              191.122             185.473    -16.6804   -16.3557 0.778473
  9173 155006.8              191.492             185.84    -16.4936   -16.113 0.778004
  9186 155226.5              191.857             186.208    -16.6034   -16.2784 0.777531
  9199 155446.2              192.22             186.575    -16.6878   -16.2922 0.777056
  9212 155665.9              192.587             186.942    -16.7206   -16.3087 0.776579
  9225 155885.6              192.958             187.311    -16.7757   -16.343 0.776097
  9238 156105.3              193.321             187.678    -16.8966   -16.595 0.775614
  9251 156325.0              193.683             188.047    -17.0516   -16.7338 0.775128
  9264 156544.7              194.049             188.414    -17.0406   -16.6621 0.774639
  9277 156764.4              194.419             188.781    -16.9968   -16.6646 0.774148
  9290 156984.1              194.788             189.15    -16.9839   -16.6215 0.773653
  9303 157203.8              195.156             189.518    -17.0571   -16.74 0.773155
  9316 157423.5              195.518             189.886    -17.2265   -16.8627 0.772655
  9329 157643.2              195.875             190.253    -17.1357   -16.8772 0.772152
  9342 157862.9              196.237             190.62    -17.2092   -16.9079 0.771648
  9355 158082.6              196.609             190.987    -17.1022   -16.8054 0.771140
  9368 158302.3              196.983             191.354    -17.2017   -16.8672 0.770629
  9381 158522.0              197.351             191.721    -17.2718   -17.0414 0.770115
  9394 158741.7              197.704             192.088    -17.4033   -17.2414 0.769598
  9407 158961.4              198.063             192.453    -17.4831   -17.4224 0.769079
  9420 159181.1              198.434             192.818    -17.352   -17.3591 0.768559
  9433 159400.8              198.81             193.182    -17.3713   -17.2842 0.768035
  9446 159620.5              199.184             193.548    -17.4912   -17.3615 0.767506
  9459 159840.2              199.547             193.915    -17.5242   -17.4821 0.766972
  9472 160059.9              199.911             194.282    -17.5026   -17.3734 0.766435
  9485 160279.6              200.28             194.648    -17.5046   -17.3448 0.765895
  9498 160499.3              200.65             195.015    -17.6736   -17.6371 0.765350
  9511 160719.0              201.016             195.384    -17.7522   -17.7705 0.764799
  9524 160938.7              201.382             195.752    -17.8334   -17.7037 0.764246
  9537 161158.4              201.745             196.12    -17.7993   -17.7087 0.763687
  9550 161378.1              202.107             196.489    -17.9618   -17.8769 0.763125
  9563 161597.8              202.474             196.856    -18.0154   -17.8255 0.762561
  9576 161817.5              202.845             197.225    -18.0584   -17.8053 0.761991
  9589 162037.2              203.211             197.595    -18.1099   -17.9407 0.761414
  9602 162256.9              203.568             197.963    -18.1004   -17.8849 0.760836
  9615 162476.6              203.933             198.33    -18.1849   -18.0313 0.760255
  9628 162696.3              204.302             198.698    -18.1565   -18.016 0.759670
  9641 162916.0              204.673             199.066    -18.3424   -18.1702 0.759080
  9654 163135.7              205.036             199.435    -18.4067   -18.3342 0.758484
  9667 163355.4              205.402             199.802    -18.4508   -18.4174 0.757886
  9680 163575.1              205.771             200.169    -18.4639   -18.4471 0.757283
  9693 163794.8              206.139             200.538    -18.5329   -18.5912 0.756673
  9706 164014.5              206.495             200.907    -18.7886   -18.8512 0.756060
  9719 164234.2              206.854             201.273    -18.7118   -18.8125 0.755445
  9732 164453.9              207.224             201.638    -18.6568   -18.6959 0.754827
  9745 164673.6              207.599             202.004    -18.5657   -18.5586 0.754202
  9758 164893.3              207.972             202.371    -18.6574   -18.6275 0.753571
  9771 165113.0              208.337             202.74    -18.7197   -18.6549 0.752933
  9784 165332.7              208.7             203.107    -18.8054   -18.8119 0.752290
  9797 165552.4              209.068             203.474    -18.9901   -19.2405 0.751644
  9810 165772.1              209.437             203.843    -18.9474   -19.1438 0.750988
  9823 165991.8              209.805             204.212    -19.1159   -19.2803 0.750327
  9836 166211.5              210.169             204.581    -19.104   -19.0563 0.749660
  9849 166431.2              210.535             204.95    -19.2323   -19.2854 0.748988
  9862 166650.9              210.897             205.32    -19.3747   -19.481 0.748309
  9875 166870.6              211.261             205.688    -19.5063   -19.464 0.747626
  9888 167090.3              211.628             206.057    -19.5122   -19.5824 0.746937
  9901 167310.0              211.996             206.427    -19.5201   -19.5758 0.746239
  9914 167529.7              212.363             206.795    -19.545   -19.5613 0.745537
  9927 167749.4              212.73             207.165    -19.607   -19.5604 0.744828
  9940 167969.1              213.092             207.534    -19.893   -19.9374 0.744111
  9953 168188.8              213.456             207.902    -19.9241   -20.0156 0.743391
  9966 168408.5              213.826             208.271    -20.0063   -20.1682 0.742663
  9979 168628.2              214.194             208.64    -20.0848   -20.2277 0.741928
  9992 168847.9              214.561             209.009    -20.0182   -20.1692 0.741186
 10005 169067.6              214.927             209.378    -20.0835   -20.2999 0.740436
 10018 169287.3              215.294             209.747    -20.3341   -20.4955 0.739679
 10031 169507.0              215.659             210.117    -20.4288   -20.5507 0.738913
 10044 169726.7              216.026             210.487    -20.5977   -20.8448 0.738140
 10057 169946.4              216.392             210.857    -20.5637   -20.6623 0.737358
 10070 170166.1              216.758             211.227    -20.6639   -20.6723 0.736570
 10083 170385.8              217.124             211.596    -20.7821   -20.8949 0.735773
 10096 170605.5              217.492             211.967    -20.8215   -20.9117 0.734967
 10109 170825.2              217.858             212.336    -20.795   -20.9548 0.734154
 10122 171044.9              218.225             212.706    -20.7541   -20.9464 0.733333
 10135 171264.6              218.591             213.077    -20.986   -21.081 0.732501
 10148 171484.3              218.957             213.448    -21.0171   -21.291 0.731658
 10161 171704.0              219.325             213.819    -21.2395   -21.4522 0.730808
 10174 171923.7              219.691             214.191    -21.4808   -21.5947 0.729946
 10187 172143.4              220.057             214.562    -21.5445   -21.7808 0.729077
 10200 172363.1              220.423             214.933    -21.5941   -21.804 0.728196
 10213 172582.8              220.788             215.305    -21.7355   -21.8632 0.727306
 10226 172802.5              221.153             215.676    -21.924   -21.9217 0.726407
 10239 173022.2              221.517             216.047    -22.0403   -22.1633 0.725499
 10252 173241.9              221.881             216.418    -22.036   -22.1969 0.724578
 10265 173461.6              222.246             216.789    -22.2498   -22.5038 0.723650
 10278 173681.3              222.612             217.16    -22.3971   -22.6672 0.722709
 10291 173901.0              222.979             217.529    -22.3838   -22.6092 0.721761
 10304 174120.7              223.345             217.899    -22.4074   -22.5787 0.720800
 10317 174340.4              223.713             218.269    -22.6606   -22.9459 0.719828
 10330 174560.1              224.079             218.64    -22.6226   -23.0966 0.718843
 10343 174779.8              224.449             219.009    -22.8135   -23.105 0.717848
 10356 174999.5              224.816             219.38    -22.8483   -23.1802 0.716839
 10369 175219.2              225.182             219.75    -22.8822   -23.1848 0.715816
 10382 175438.9              225.544             220.121    -22.9506   -23.2297 0.714779
 10395 175658.6              225.905             220.491    -23.1426   -23.5789 0.713734
 10408 175878.3              226.269             220.86    -23.3892   -23.7519 0.712675
 10421 176098.0              226.63             221.228    -23.5544   -23.8272 0.711607
 10434 176317.7              226.986             221.594    -23.6372   -24.0618 0.710530
 10447 176537.4              227.339             221.959    -23.5676   -23.882 0.709445
 10460 176757.1              227.691             222.318    -23.6567   -24.109 0.708360
 10473 176976.8              228.03             222.674    -23.5261   -23.8891 0.707273
 10486 177196.5              228.34             223.02    -23.4219   -23.822 0.706199
 10499 177416.2              228.676             223.352    -23.0134   -23.3407 0.705159
 10512 177635.9              229.057             223.677    -22.7112   -22.9735 0.704127
 10525 177855.6              229.461             223.999    -22.3186   -22.6863 0.703092
 10538 178075.3              229.87             224.324    -22.0657   -22.3411 0.702035
 10551 178295.0              230.269             224.653    -22.2658   -22.6767 0.700951
 10564 178514.7              230.652             224.987    -22.4908   -22.9923 0.699836
 10577 178734.4              231.029             225.324    -22.9903   -23.5404 0.698698
 10590 178954.1              231.408             225.665    -23.3649   -23.8372 0.697529
 10603 179173.8              231.781             226.01    -23.6588   -23.9631 0.696331
 10616 179393.5              232.15             226.357    -24.0247   -24.326 0.695110
 10629 179613.2              232.521             226.708    -24.3858   -24.7433 0.693857
 10642 179832.9              232.896             227.061    -24.7355   -25.0331 0.692575
 10655 180052.6              233.264             227.418    -25.1733   -25.4352 0.691261
 10668 180272.3              233.631             227.777    -25.4992   -25.7946 0.689921
 10681 180492.0              233.999             228.14    -25.8654   -26.3673 0.688547
 10694 180711.7              234.362             228.505    -26.1503   -26.5707 0.687143
 10707 180931.4              234.728             228.871    -26.5726   -27.0311 0.685711
 10720 181151.1              235.099             229.24    -26.765   -27.0462 0.684243
 10733 181370.8              235.465             229.612    -27.2321   -27.4137 0.682739
 10746 181590.5              235.838             229.985    -27.7405   -28.1801 0.681206
 10759 181810.2              236.203             230.363    -28.1879   -28.7081 0.679627
 10772 182029.9              236.566             230.742    -28.4519   -28.879 0.678016
 10785 182249.6              236.93             231.122    -28.9259   -29.466 0.676373
 10798 182469.3              237.296             231.504    -29.2386   -29.6739 0.674693
 10811 182689.0              237.662             231.887    -29.6763   -30.0496 0.672975
 10824 182908.7              238.025             232.27    -30.0131   -30.3971 0.671223
 10837 183128.4              238.388             232.655    -30.3716   -30.7958 0.669434
 10850 183348.1              238.752             233.039    -30.687   -31.1869 0.667612
 10863 183567.8              239.114             233.424    -30.9902   -31.5887 0.665753
 10876 183787.5              239.479             233.808    -31.2407   -31.7339 0.663860
 10889 184007.2              239.843             234.192    -31.6391   -32.0582 0.661935
 10902 184226.9              240.208             234.575    -32.0615   -32.4857 0.659971
 10915 184446.6              240.572             234.959    -32.3905   -32.7723 0.657968
 10928 184666.3              240.937             235.342    -32.6968   -33.1415 0.655923
 10941 184886.0              241.303             235.725    -32.972   -33.4783 0.653838
 10954 185105.7              241.669             236.107    -33.3078   -33.6931 0.651718
 10967 185325.4              242.034             236.489    -33.7023   -34.0761 0.649553
 10980 185545.1              242.398             236.87    -34.0343   -34.4322 0.647346
 10993 185764.8              242.765             237.251    -34.3303   -34.7827 0.645094
 11006 185984.5              243.131             237.633    -34.6884   -35.2185 0.642786
 11019 186204.2              243.496             238.012    -35.0031   -35.703 0.640442
 11032 186423.9              243.862             238.392    -35.3644   -36.1877 0.638043
 11045 186643.6              244.225             238.772    -35.7217   -36.3048 0.635593
 11058 186863.3              244.59             239.15    -36.2103   -36.5947 0.633094
 11071 187083.0              244.953             239.528    -36.5763   -36.872 0.630546
 11084 187302.7              245.319             239.906    -36.9638   -37.3327 0.627931
 11097 187522.4              245.683             240.282    -37.3781   -37.728 0.625273
 11110 187742.1              246.052             240.657    -37.824   -38.2962 0.622554
 11123 187961.8              246.419             241.033    -38.3059   -38.6953 0.619771
 11136 188181.5              246.785             241.408    -38.8735   -39.3663 0.616922
 11149 188401.2              247.153             241.784    -39.2653   -39.7105 0.614000
 11162 188620.9              247.522             242.158    -39.8322   -40.2543 0.611013
 11175 188840.6              247.888             242.533    -40.436   -40.7314 0.607947
 11188 189060.3              248.251             242.908    -40.9193   -41.2666 0.604805
 11201 189280.0              248.615             243.282    -41.5133   -41.922 0.601591
 11214 189499.7              248.98             243.656    -42.0499   -42.3965 0.598293
 11227 189719.4              249.346             244.029    -42.5902   -42.9205 0.594917
 11240 189939.1              249.712             244.402    -43.307   -43.553 0.591450
 11253 190158.8              250.079             244.775    -44.0706   -44.3382 0.587897
 11266 190378.5              250.444             245.148    -44.7251   -45.0379 0.584236
 11279 190598.2              250.811             245.52    -45.3937   -45.7412 0.580491
 11292 190817.9              251.176             245.891    -45.9386   -46.2873 0.576649
 11305 191037.6              251.542             246.263    -46.8485   -47.2786 0.572692
 11318 191257.3              251.908             246.634    -47.7588   -48.2863 0.568633
 11331 191477.0              252.274             247.005    -48.6079   -49.0769 0.564454
 11344 191696.7              252.64             247.376    -49.4178   -49.8813 0.560152
 11357 191916.4              253.007             247.746    -50.296   -50.7564 0.555734
 11370 192136.1              253.372             248.116    -51.2801   -51.7413 0.551182
 11383 192355.8              253.739             248.486    -52.2182   -52.6114 0.546494
 11396 192575.5              254.105             248.856    -53.146   -53.5446 0.541669
 11409 192795.2              254.47             249.226    -54.1239   -54.4164 0.536684
 11422 193014.9              254.836             249.595    -55.2495   -55.6499 0.531572
 11435 193234.6              255.203             249.965    -56.4386   -56.82 0.526270
 11448 193454.3              255.568             250.334    -57.5064   -58.0296 0.520820
 11461 193674.0              255.934             250.702    -58.8546   -59.3591 0.515203
 11474 193893.7              256.301             251.072    -60.1575   -60.6767 0.509371
 11487 194113.4              256.668             251.44    -61.4286   -61.8556 0.503367
 11500 194333.1              257.034             251.809    -62.8882   -63.2315 0.497160
 11513 194552.8              257.399             252.178    -64.3468   -64.6409 0.490738
 11526 194772.5              257.766             252.547    -65.8199   -66.183 0.484085
 11539 194992.2              258.133             252.915    -67.3708   -67.7896 0.477209
 11552 195211.9              258.498             253.283    -68.9318   -69.3376 0.470107
 11565 195431.6              258.864             253.651    -70.7421   -71.1581 0.462732
 11578 195651.3              259.23             254.019    -72.5238   -72.8889 0.455100
 11591 195871.0              259.597             254.388    -74.4562   -74.7944 0.447167
 11604 196090.7              259.964             254.755    -76.5825   -76.9159 0.438956
 11617 196310.4              260.328             255.124    -78.661   -79.0797 0.430408
 11630 196530.1              260.695             255.492    -80.7598   -81.2856 0.421540
 11643 196749.8              261.061             255.859    -82.9808   -83.5324 0.412344
 11656 196969.5              261.428             256.227    -85.3856   -85.8028 0.402762
 11669 197189.2              261.793             256.594    -87.8849   -88.242 0.392798
 11682 197408.9              262.159             256.962    -90.3461   -90.7659 0.382423
 11695 197628.6              262.526             257.329    -92.8858   -93.343 0.371627
 11708 197848.3              262.893             257.697    -95.6028   -96.0095 0.360325
 11721 198068.0              263.258             258.063    -98.449   -98.847 0.348574
 11734 198287.7              263.625             258.432   -101.277  -101.746 0.336238
 11747 198507.4              263.99             258.798   -104.036  -104.43 0.323428
 11760 198727.1              264.356             259.166   -106.669  -107.09 0.309954
 11773 198946.8              264.723             259.532   -109.154  -109.633 0.295901
 11786 199166.5              265.089             259.899   -111.656  -112.149 0.281129
 11799 199386.2              265.455             260.266   -114.174  -114.667 0.265616
 11812 199605.9              265.82             260.633   -116.798  -117.284 0.249316
 11825 199825.6              266.187             261   -119.426  -119.974 0.232174
 11838 200045.3              266.555             261.368   -121.496  -122.014 0.214075
 11851 200265.0              266.922             261.735   -122.433  -123.02 0.194968
 11864 200484.7              267.287             262.102   -122.258  -122.758 0.174784
 11877 200704.4              267.654             262.469   -121.094  -121.523 0.153447
 11890 200924.1              268.019             262.836   -119.444  -119.858 0.130753
 11903 201143.8              268.384             263.204   -119.621  -120.072 0.106617
 11916 201363.5              268.751             263.571   -120.136  -120.621 0.080973
 11929 201583.2              269.118             263.938   -115.73  -116.313 0.053503
 11942 201802.9              269.485             264.307   -105.331  -105.863 0.024003
 11955 202022.6              269.851             264.675    -91.7979   -92.2729      NaN
 11968 202242.3              270.216             265.044    -79.1294   -79.5469      NaN
 11981 202462.0              270.579             265.414    -56.9904   -57.4516      NaN
 11994 202681.7              270.946             265.784    -44.6068   -45.1508      NaN
 12007 202901.4              271.313             266.153    -38.394   -38.9796      NaN
 12020 203121.1              271.681             266.523    -35.301   -35.8226      NaN
 12033 203340.8              272.048             266.893    -33.7113   -34.1822      NaN
 12046 203560.5              272.414             267.262    -32.9672   -33.4282      NaN
 12059 203780.2              272.78             267.633    -32.5932   -33.0416      NaN
 12072 203999.9              273.145             268.003    -32.4373   -32.8434      NaN
 12085 204219.6              273.511             268.372    -32.3579   -32.7928      NaN
 12098 204439.3              273.878             268.742    -32.3522   -32.8169      NaN
 12111 204659.0              274.244             269.111    -32.3244   -32.7673      NaN
 12124 204878.7              274.611             269.48    -32.3116   -32.7746      NaN
 12137 205098.4              274.976             269.849    -32.3562   -32.8426      NaN
 12150 205318.1              275.342             270.217    -32.3647   -32.8812      NaN
 12163 205537.8              275.707             270.587    -32.3127   -32.8222      NaN
 12176 205757.5              276.075             270.955    -32.3045   -32.8219      NaN
 12189 205977.2              276.439             271.324    -32.3087   -32.8398      NaN
 12202 206196.9              276.806             271.691    -32.3102   -32.8251      NaN
 12215 206416.6              277.172             272.06    -32.2834   -32.774      NaN
 12228 206636.3              277.54             272.428    -32.2653   -32.7764      NaN
 12241 206856.0              277.906             272.797    -32.2528   -32.7746      NaN
 12254 207075.7              278.274             273.165    -32.2654   -32.7768      NaN
 12267 207295.4              278.639             273.533    -32.2552   -32.7655      NaN
 12280 207515.1              279.005             273.903    -32.2683   -32.7623      NaN
 12293 207734.8              279.372             274.272    -32.2728   -32.7697      NaN
 12306 207954.5              279.738             274.64    -32.2771   -32.8118      NaN
 12319 208174.2              280.104             275.008    -32.2772   -32.8307      NaN
 12332 208393.9              280.468             275.376    -32.2657   -32.7809      NaN
 12345 208613.6              280.835             275.745    -32.2511   -32.7234      NaN
 12358 208833.3              281.2             276.114    -32.2719   -32.7477      NaN
 12371 209053.0              281.568             276.482    -32.2388   -32.7119      NaN
 12384 209272.7              281.933             276.85    -32.2689   -32.7235      NaN
 12397 209492.4              282.3             277.218    -32.2697   -32.7765      NaN
 12410 209712.1              282.666             277.586    -32.257   -32.762      NaN
 12423 209931.8              283.032             277.955    -32.2709   -32.7981      NaN
 12436 210151.5              283.398             278.323    -32.2596   -32.7537      NaN
 12449 210371.2              283.764             278.691    -32.2508   -32.7128      NaN
 12462 210590.9              284.13             279.059    -32.2593   -32.7284      NaN
 12475 210810.6              284.496             279.427    -32.2748   -32.7453      NaN
 12488 211030.3              284.862             279.795    -32.2839   -32.7526      NaN
 12501 211250.0              285.228             280.163    -32.2675   -32.7576      NaN
 12514 211469.7              285.594             280.531    -32.2642   -32.7416      NaN
 12527 211689.4              285.961             280.899    -32.2553   -32.7426      NaN
 12540 211909.1              286.328             281.267    -32.2866   -32.7691      NaN
 12553 212128.8              286.693             281.635    -32.2951   -32.7856      NaN
 12566 212348.5              287.059             282.003    -32.2987   -32.7829      NaN
 12579 212568.2              287.426             282.371    -32.3024   -32.7887      NaN
 12592 212787.9              287.791             282.738    -32.2774   -32.78      NaN
 12605 213007.6              288.157             283.106    -32.2906   -32.7871      NaN
 12618 213227.3              288.524             283.474    -32.2879   -32.7881      NaN
 12631 213447.0              288.89             283.842    -32.3031   -32.8049      NaN
 12644 213666.7              289.256             284.209    -32.293   -32.8011      NaN
 12657 213886.4              289.622             284.577    -32.312   -32.8213      NaN
 12670 214106.1              289.989             284.945    -32.3148   -32.8229      NaN
 12683 214325.8              290.355             285.313    -32.3148   -32.8543      NaN
 12696 214545.5              290.721             285.68    -32.3209   -32.8686      NaN
 12709 214765.2              291.087             286.047    -32.3257   -32.8703      NaN
 12722 214984.9              291.453             286.416    -32.3402   -32.8831      NaN
 12735 215204.6              291.82             286.784    -32.3246   -32.8708      NaN
 12748 215424.3              292.185             287.151    -32.3252   -32.8901      NaN
 12761 215644.0              292.551             287.519    -32.3248   -32.8989      NaN
 12774 215863.7              292.918             287.886    -32.3178   -32.8863      NaN
 12787 216083.4              293.284             288.253    -32.3242   -32.8954      NaN
 12800 216303.1              293.65             288.621    -32.3255   -32.9192      NaN
 12813 216522.8              294.016             288.988    -32.3174   -32.91      NaN
 12826 216742.5              294.382             289.356    -32.3098   -32.9003      NaN
 12839 216962.2              294.749             289.723    -32.3081   -32.9227      NaN
 12852 217181.9              295.115             290.09    -32.2968   -32.9079      NaN
 12865 217401.6              295.482             290.457    -32.2872   -32.9065      NaN
 12878 217621.3              295.849             290.824    -32.2687   -32.912      NaN
 12891 217841.0              296.213             291.191    -32.2577   -32.9254      NaN
 12900 217993.1              296.467             291.444    -32.2405   -32.9181      NaN