File: i_data_processed/27Sep/8.73wt%_climb_proc.txt
 Index  Time(s)  Furnace Temperature(K)  Sample Temperature(K)  HeatFlow(mW)  Q_Corrected       Fc
  6001 101400.0              107.324             107.769     -0.068002     0.415987      NaN
  6014 101619.7              107.313             107.75     -0.063267     0.437207      NaN
  6027 101839.4              107.307             107.731     -0.091434     0.402037      NaN
  6040 102059.1              107.304             107.715     -0.091762     0.397484      NaN
  6053 102278.8              107.293             107.698     -0.119306     0.382724      NaN
  6066 102498.5              107.274             107.681     -0.129133     0.356610      NaN
  6079 102718.2              107.254             107.664     -0.122186     0.370156      NaN
  6092 102937.9              107.242             107.648     -0.135814     0.357868      NaN
  6105 103157.6              107.233             107.631     -0.134565     0.355195      NaN
  6118 103377.3              107.229             107.616     -0.146613     0.340464      NaN
  6131 103597.0              107.227             107.601     -0.147580     0.347338      NaN
  6144 103816.7              107.226             107.586     -0.178319     0.321354      NaN
  6157 104036.4              107.227             107.575     -0.182136     0.312994      NaN
  6170 104256.1              107.23             107.562     -0.208447     0.289577      NaN
  6183 104475.8              107.231             107.551     -0.244264     0.246115      NaN
  6196 104695.5              107.23             107.54     -0.263295     0.225641      NaN
  6209 104915.2              107.463             107.534     -0.324461     0.166751      NaN
  6222 105134.9              108.054             107.552     -0.616518    -0.122718      NaN
  6235 105354.6              108.632             107.605     -1.176802    -0.686307      NaN
  6248 105574.3              109.086             107.688     -1.855552    -1.359674      NaN
  6261 105794.0              109.468             107.793     -2.488436    -1.998965      NaN
  6274 106013.7              109.824             107.916     -3.014690    -2.517349      NaN
  6287 106233.4              110.18             108.053     -3.483068    -2.989653      NaN
  6300 106453.1              110.543             108.206     -3.867425    -3.302818      NaN
  6313 106672.8              110.91             108.373     -4.249193    -3.584022      NaN
  6326 106892.5              111.277             108.554     -4.594302    -3.835302      NaN
  6339 107112.2              111.644             108.746     -4.920187    -4.115997      NaN
  6352 107331.9              112.011             108.949     -5.229014    -4.381065      NaN
  6365 107551.6              112.38             109.162     -5.508646    -4.620511      NaN
  6378 107771.3              112.749             109.386     -5.787552    -4.870861      NaN
  6391 107991.0              113.118             109.619     -6.040490    -5.093854      NaN
  6404 108210.7              113.485             109.861     -6.291526    -5.308616      NaN
  6417 108430.4              113.85             110.112     -6.512056    -5.499850      NaN
  6430 108650.1              114.217             110.369     -6.745737    -5.702860      NaN
  6443 108869.8              114.585             110.633     -6.950023    -5.885571      NaN
  6456 109089.5              114.95             110.904     -7.139268    -6.054617      NaN
  6469 109309.2              115.313             111.182     -7.307395    -6.191642      NaN
  6482 109528.9              115.679             111.465     -7.497029    -6.361992      NaN
  6495 109748.6              116.048             111.753     -7.636248    -6.480213      NaN
  6508 109968.3              116.417             112.046     -7.805533    -6.634435      NaN
  6521 110188.0              116.785             112.343     -7.953374    -6.752422      NaN
  6534 110407.7              117.151             112.646     -8.115573    -6.906813      NaN
  6547 110627.4              117.514             112.953     -8.249800    -7.029666      NaN
  6560 110847.1              117.882             113.262     -8.396071    -7.152550      NaN
  6573 111066.8              118.25             113.575     -8.515112    -7.261034      NaN
  6586 111286.5              118.616             113.892     -8.659170    -7.400360      NaN
  6599 111506.2              118.983             114.211     -8.774362    -7.498534      NaN
  6612 111725.9              119.345             114.534     -8.899424    -7.626805      NaN
  6625 111945.6              119.712             114.858     -9.025654    -7.728698      NaN
  6638 112165.3              120.08             115.186     -9.159206    -7.864067      NaN
  6651 112385.0              120.448             115.516     -9.275943    -7.965630      NaN
  6664 112604.7              120.815             115.848     -9.396197    -8.086296      NaN
  6677 112824.4              121.179             116.182     -9.540882    -8.220117      NaN
  6690 113044.1              121.544             116.517     -9.666371    -8.337484      NaN
  6703 113263.8              121.914             116.854     -9.814381    -8.492824      NaN
  6716 113483.5              122.283             117.194     -9.968335    -8.634602      NaN
  6729 113703.2              122.649             117.536    -10.1534    -8.820202      NaN
  6742 113922.9              123.007             117.878    -10.332    -8.992632      NaN
  6755 114142.6              123.365             118.22    -10.5154    -9.165455      NaN
  6768 114362.3              123.73             118.563    -10.743    -9.400194      NaN
  6781 114582.0              124.103             118.907    -10.9723    -9.623373      NaN
  6794 114801.7              124.479             119.253    -11.2584    -9.899346      NaN
  6807 115021.4              124.85             119.601    -11.5708   -10.2185      NaN
  6820 115241.1              125.217             119.95    -11.9212   -10.5803      NaN
  6833 115460.8              125.583             120.3    -12.2694   -10.9205      NaN
  6846 115680.5              125.939             120.651    -12.6035   -11.2504      NaN
  6859 115900.2              126.299             121.002    -12.8968   -11.5472      NaN
  6872 116119.9              126.666             121.352    -13.076   -11.7228      NaN
  6885 116339.6              127.038             121.705    -13.1457   -11.7904      NaN
  6898 116559.3              127.405             122.057    -13.0578   -11.7009      NaN
  6911 116779.0              127.769             122.41    -12.8731   -11.5117      NaN
  6924 116998.7              128.135             122.763    -12.6389   -11.286      NaN
  6937 117218.4              128.507             123.117    -12.4537   -11.1043      NaN
  6950 117438.1              128.877             123.473    -12.3322   -10.9761      NaN
  6963 117657.8              129.244             123.83    -12.2843   -10.9401      NaN
  6976 117877.5              129.609             124.187    -12.2704   -10.9186      NaN
  6989 118097.2              129.975             124.543    -12.2706   -10.9226      NaN
  7002 118316.9              130.336             124.901    -12.2939   -10.9531      NaN
  7015 118536.6              130.691             125.258    -12.3037   -10.9644      NaN
  7028 118756.3              131.051             125.614    -12.2904   -10.9543      NaN
  7041 118976.0              131.421             125.969    -12.2928   -10.9473      NaN
  7054 119195.7              131.795             126.325    -12.2956   -10.9566      NaN
  7067 119415.4              132.169             126.684    -12.3352   -10.9971      NaN
  7080 119635.1              132.539             127.041    -12.3609   -11.0343      NaN
  7093 119854.8              132.898             127.399    -12.3856   -11.0635      NaN
  7106 120074.5              133.257             127.757    -12.4211   -11.0935      NaN
  7119 120294.2              133.623             128.115    -12.4388   -11.1185      NaN
  7132 120513.9              133.994             128.472    -12.4547   -11.1272      NaN
  7145 120733.6              134.368             128.831    -12.4792   -11.1576      NaN
  7158 120953.3              134.741             129.19    -12.5088   -11.2072      NaN
  7171 121173.0              135.111             129.552    -12.5661   -11.2582      NaN
  7184 121392.7              135.469             129.913    -12.6122   -11.3063      NaN
  7197 121612.4              135.827             130.274    -12.6265   -11.3156      NaN
  7210 121832.1              136.192             130.634    -12.6348   -11.3329      NaN
  7223 122051.8              136.56             130.995    -12.6587   -11.3547      NaN
  7236 122271.5              136.922             131.354    -12.6717   -11.379      NaN
  7249 122491.2              137.286             131.714    -12.6759   -11.3735      NaN
  7262 122710.9              137.656             132.074    -12.6894   -11.3944      NaN
  7275 122930.6              138.029             132.435    -12.7055   -11.4274      NaN
  7288 123150.3              138.405             132.798    -12.7353   -11.4538      NaN
  7301 123370.0              138.773             133.16    -12.7799   -11.4931      NaN
  7314 123589.7              139.131             133.523    -12.8254   -11.5448      NaN
  7327 123809.4              139.491             133.886    -12.8462   -11.5751      NaN
  7340 124029.1              139.855             134.248    -12.8614   -11.5867      NaN
  7353 124248.8              140.222             134.61    -12.8706   -11.5979      NaN
  7366 124468.5              140.591             134.972    -12.8781   -11.6135      NaN
  7379 124688.2              140.961             135.335    -12.9052   -11.6341      NaN
  7392 124907.9              141.323             135.699    -12.9311   -11.6728      NaN
  7405 125127.6              141.689             136.061    -12.9497   -11.6957      NaN
  7418 125347.3              142.057             136.424    -12.9627   -11.6988      NaN
  7431 125567.0              142.422             136.787    -12.9786   -11.7193      NaN
  7444 125786.7              142.793             137.151    -13.0081   -11.7536      NaN
  7457 126006.4              143.154             137.515    -13.0346   -11.7872      NaN
  7470 126226.1              143.511             137.877    -13.0384   -11.795      NaN
  7483 126445.8              143.876             138.239    -13.0374   -11.7907      NaN
  7496 126665.5              144.246             138.601    -13.0488   -11.8087      NaN
  7509 126885.2              144.619             138.964    -13.0512   -11.8184      NaN
  7522 127104.9              144.991             139.327    -13.081   -11.849      NaN
  7535 127324.6              145.353             139.69    -13.1163   -11.8933      NaN
  7548 127544.3              145.716             140.054    -13.1255   -11.902      NaN
  7561 127764.0              146.085             140.417    -13.1387   -11.9082      NaN
  7574 127983.7              146.457             140.781    -13.1727   -11.9394      NaN
  7587 128203.4              146.821             141.145    -13.1935   -11.9699      NaN
  7600 128423.1              147.177             141.509    -13.2002   -11.9788      NaN
  7613 128642.8              147.538             141.874    -13.1938   -11.9704      NaN
  7626 128862.5              147.907             142.237    -13.1892   -11.9718      NaN
  7639 129082.2              148.279             142.6    -13.181   -11.9727      NaN
  7652 129301.9              148.651             142.965    -13.1778   -11.9685      NaN
  7665 129521.6              149.02             143.329    -13.1814   -11.9718      NaN
  7678 129741.3              149.384             143.694    -13.1582   -11.9482      NaN
  7691 129961.0              149.744             144.059    -13.1042   -11.9075      NaN
  7704 130180.7              150.11             144.423    -13.0277   -11.833      NaN
  7717 130400.4              150.481             144.788    -12.9265   -11.7322      NaN
  7730 130620.1              150.846             145.154    -12.7792   -11.5807      NaN
  7743 130839.8              151.204             145.519    -12.5431   -11.3541      NaN
  7756 131059.5              151.567             145.884    -12.2317   -11.0473      NaN
  7769 131279.2              151.938             146.248    -11.8113   -10.6325      NaN
  7782 131498.9              152.309             146.613    -11.2607   -10.0835      NaN
  7795 131718.6              152.677             146.978    -10.5391    -9.361676      NaN
  7808 131938.3              153.041             147.343     -9.590686    -8.418327      NaN
  7821 132158.0              153.404             147.708     -8.323301    -7.157960      NaN
  7834 132377.7              153.768             148.074     -6.697875    -5.537540      NaN
  7847 132597.4              154.133             148.44     -4.620709    -3.462146      NaN
  7860 132817.1              154.505             148.805     -1.921780    -0.765471      NaN
  7873 133036.8              154.879             149.171      1.473214     2.626291      NaN
  7886 133256.5              155.249             149.538      5.779469     6.927600      NaN
  7899 133476.2              155.612             149.906     11.1522    12.3032      NaN
  7912 133695.9              155.974             150.274     17.7309    18.8665      NaN
  7925 133915.6              156.338             150.641     25.4496    26.5642      NaN
  7938 134135.3              156.702             151.01     33.9642    35.0773      NaN
  7951 134355.0              157.071             151.379     42.423    43.5277      NaN
  7964 134574.7              157.439             151.749     49.367    50.4767      NaN
  7977 134794.4              157.805             152.118     52.969    54.0836      NaN
  7990 135014.1              158.169             152.487     51.78    52.8743      NaN
  8003 135233.8              158.533             152.856     45.6536    46.7458      NaN
  8016 135453.5              158.899             153.224     36.0154    37.114      NaN
  8029 135673.2              159.265             153.59     25.0569    26.1618      NaN
  8042 135892.9              159.632             153.959     14.7436    15.837      NaN
  8055 136112.6              160             154.325      6.243348     7.332760      NaN
  8068 136332.3              160.363             154.692     -0.047649     1.038068      NaN
  8081 136552.0              160.726             155.058     -4.368931    -3.298673      NaN
  8094 136771.7              161.092             155.423     -7.113480    -6.048303      NaN
  8107 136991.4              161.455             155.787     -8.761018    -7.705698      NaN
  8120 137211.1              161.824             156.152     -9.740489    -8.695949      NaN
  8133 137430.8              162.195             156.518    -10.2979    -9.234958      NaN
  8146 137650.5              162.566             156.884    -10.6619    -9.598743      NaN
  8159 137870.2              162.931             157.249    -10.8644    -9.791757      NaN
  8172 138089.9              163.291             157.616    -11.037    -9.983899      NaN
  8185 138309.6              163.655             157.982    -11.1586   -10.1267      NaN
  8198 138529.3              164.025             158.347    -11.2416   -10.2167      NaN
  8211 138749.0              164.394             158.712    -11.287   -10.2554      NaN
  8224 138968.7              164.756             159.078    -11.3731   -10.3369      NaN
  8237 139188.4              165.12             159.443    -11.4446   -10.4523      NaN
  8250 139408.1              165.487             159.81    -11.4862   -10.4817      NaN
  8263 139627.8              165.858             160.176    -11.5204   -10.5232      NaN
  8276 139847.5              166.227             160.542    -11.5511   -10.5833      NaN
  8289 140067.2              166.588             160.908    -11.5617   -10.5683      NaN
  8302 140286.9              166.949             161.274    -11.59   -10.6376      NaN
  8315 140506.6              167.316             161.639    -11.6091   -10.6512      NaN
  8328 140726.3              167.687             162.005    -11.6236   -10.6654      NaN
  8341 140946.0              168.058             162.371    -11.6526   -10.725      NaN
  8354 141165.7              168.423             162.738    -11.6735   -10.7698      NaN
  8367 141385.4              168.786             163.104    -11.7096   -10.7748      NaN
  8380 141605.1              169.148             163.471    -11.7007   -10.7629      NaN
  8393 141824.8              169.513             163.837    -11.7459   -10.7995      NaN
  8406 142044.5              169.882             164.203    -11.7833   -10.8846      NaN
  8419 142264.2              170.253             164.569    -11.8066   -10.8829      NaN
  8432 142483.9              170.618             164.936    -11.8335   -10.9121      NaN
  8445 142703.6              170.982             165.303    -11.8449   -10.9149      NaN
  8458 142923.3              171.349             165.669    -11.8499   -10.9608      NaN
  8471 143143.0              171.718             166.036    -11.9263   -11.0603      NaN
  8484 143362.7              172.085             166.404    -11.9622   -11.0979      NaN
  8497 143582.4              172.448             166.77    -12.0238   -11.183      NaN
  8510 143802.1              172.813             167.137    -12.0943   -11.2777      NaN
  8523 144021.8              173.182             167.505    -12.1814   -11.3916      NaN
  8536 144241.5              173.548             167.871    -12.2563   -11.4617      NaN
  8549 144461.2              173.911             168.239    -12.4215   -11.6376      NaN
  8562 144680.9              174.276             168.606    -12.5729   -11.8005      NaN
  8575 144900.6              174.646             168.972    -12.8444   -12.0879      NaN
  8588 145120.3              175.013             169.34    -13.0947   -12.3168      NaN
  8601 145340.0              175.378             169.707    -13.4311   -12.6434      NaN
  8614 145559.7              175.743             170.074    -13.5214   -12.8037      NaN
  8627 145779.4              176.113             170.442    -12.7198   -11.972      NaN
  8640 145999.1              176.483             170.81    -12.0227   -11.3084      NaN
  8653 146218.8              176.845             171.178    -12.0321   -11.2819      NaN
  8666 146438.5              177.207             171.546    -11.6304   -10.9516      NaN
  8679 146658.2              177.573             171.913    -11.7394   -11.0839      NaN
  8692 146877.9              177.943             172.281    -11.8959   -11.2735      NaN
  8705 147097.6              178.311             172.65    -12.1886   -11.5516      NaN
  8718 147317.3              178.673             173.018    -12.3176   -11.6601      NaN
  8731 147537.0              179.034             173.386    -12.5189   -11.8779      NaN
  8744 147756.7              179.402             173.753    -12.6464   -12.0535      NaN
  8757 147976.4              179.772             174.121    -12.9207   -12.3195      NaN
  8770 148196.1              180.138             174.489    -13.2567   -12.6685      NaN
  8783 148415.8              180.501             174.856    -13.854   -13.2388      NaN
  8796 148635.5              180.869             175.223    -15.3183   -14.7028 0.734465
  8809 148855.2              181.239             175.591    -19.1881   -18.5484 0.733937
  8822 149074.9              181.608             175.959    -32.5284   -32.0021 0.733407
  8835 149294.6              181.971             176.326    -62.915   -62.3823 0.732876
  8848 149514.3              182.334             176.691   -105.787  -105.134 0.732348
  8861 149734.0              182.702             177.054   -149.872  -149.289 0.731819
  8874 149953.7              183.071             177.416   -176.592  -176.008 0.731290
  8887 150173.4              183.433             177.778   -177.705  -177.245 0.730758
  8900 150393.1              183.796             178.141   -170.466  -169.97 0.730224
  8913 150612.8              184.162             178.506    -84.6368   -84.065 0.729683
  8926 150832.5              184.532             178.875    -45.0678   -44.5481 0.729136
  8939 151052.2              184.898             179.245    -28.6297   -28.0695 0.728584
  8952 151271.9              185.261             179.614    -21.6396   -21.1737 0.728031
  8965 151491.6              185.627             179.983    -18.5986   -18.1166 0.727476
  8978 151711.3              185.996             180.352    -17.5055   -16.9969 0.726918
  8991 151931.0              186.365             180.721    -17.0256   -16.543 0.726359
  9004 152150.7              186.73             181.091    -16.8415   -16.3035 0.725795
  9017 152370.4              187.092             181.46    -16.6243   -16.0658 0.725229
  9030 152590.1              187.457             181.828    -16.6937   -16.1772 0.724663
  9043 152809.8              187.826             182.197    -16.6906   -16.2691 0.724093
  9056 153029.5              188.196             182.566    -16.6189   -16.1499 0.723520
  9069 153249.2              188.559             182.935    -16.6588   -16.243 0.722945
  9082 153468.9              188.924             183.303    -16.7839   -16.3948 0.722367
  9095 153688.6              189.292             183.672    -16.7584   -16.3265 0.721786
  9108 153908.3              189.66             184.04    -16.8527   -16.4452 0.721203
  9121 154128.0              190.025             184.408    -17.0226   -16.6472 0.720617
  9134 154347.7              190.389             184.777    -16.9396   -16.6302 0.720027
  9147 154567.4              190.755             185.146    -16.9097   -16.6066 0.719434
  9160 154787.1              191.125             185.515    -16.9659   -16.6412 0.718839
  9173 155006.8              191.49             185.883    -17.0592   -16.6787 0.718240
  9186 155226.5              191.853             186.252    -17.007   -16.682 0.717638
  9199 155446.2              192.221             186.62    -17.1343   -16.7387 0.717034
  9212 155665.9              192.592             186.988    -17.2813   -16.8693 0.716426
  9225 155885.6              192.957             187.358    -17.3173   -16.8846 0.715812
  9238 156105.3              193.321             187.726    -17.3129   -17.0113 0.715198
  9251 156325.0              193.686             188.095    -17.5233   -17.2055 0.714578
  9264 156544.7              194.053             188.464    -17.4924   -17.114 0.713957
  9277 156764.4              194.42             188.832    -17.3916   -17.0593 0.713332
  9290 156984.1              194.782             189.201    -17.4999   -17.1376 0.712702
  9303 157203.8              195.147             189.569    -17.5466   -17.2295 0.712070
  9316 157423.5              195.515             189.937    -17.53   -17.1662 0.711435
  9329 157643.2              195.886             190.305    -17.379   -17.1205 0.710795
  9342 157862.9              196.256             190.674    -17.4591   -17.1578 0.710151
  9355 158082.6              196.618             191.043    -17.8009   -17.5041 0.709502
  9368 158302.3              196.981             191.411    -17.8357   -17.5012 0.708850
  9381 158522.0              197.348             191.78    -17.9318   -17.7014 0.708194
  9394 158741.7              197.717             192.148    -17.9001   -17.7382 0.707534
  9407 158961.4              198.084             192.518    -18.0258   -17.9651 0.706869
  9420 159181.1              198.446             192.886    -18.0793   -18.0865 0.706201
  9433 159400.8              198.811             193.255    -17.9132   -17.8261 0.705528
  9446 159620.5              199.178             193.623    -17.9212   -17.7915 0.704852
  9459 159840.2              199.548             193.991    -18.1182   -18.0762 0.704171
  9472 160059.9              199.913             194.36    -18.2567   -18.1275 0.703483
  9485 160279.6              200.278             194.729    -18.2426   -18.0828 0.702792
  9498 160499.3              200.644             195.097    -18.2893   -18.2528 0.702098
  9511 160719.0              201.008             195.467    -18.3894   -18.4076 0.701397
  9524 160938.7              201.372             195.835    -18.5282   -18.3986 0.700692
  9537 161158.4              201.737             196.203    -18.4213   -18.3306 0.699985
  9550 161378.1              202.106             196.571    -18.4991   -18.4142 0.699270
  9563 161597.8              202.474             196.938    -18.4863   -18.2963 0.698554
  9576 161817.5              202.837             197.307    -18.3849   -18.1318 0.697829
  9589 162037.2              203.203             197.675    -18.4852   -18.316 0.697099
  9602 162256.9              203.571             198.043    -18.4958   -18.2803 0.696365
  9615 162476.6              203.939             198.412    -18.5921   -18.4385 0.695625
  9628 162696.3              204.303             198.78    -18.6844   -18.5439 0.694879
  9641 162916.0              204.669             199.148    -18.6897   -18.5176 0.694129
  9654 163135.7              205.038             199.515    -18.8604   -18.7878 0.693375
  9667 163355.4              205.404             199.884    -18.8208   -18.7874 0.692613
  9680 163575.1              205.769             200.251    -18.9648   -18.9481 0.691846
  9693 163794.8              206.135             200.619    -19.0596   -19.1178 0.691073
  9706 164014.5              206.505             200.988    -19.0108   -19.0735 0.690292
  9719 164234.2              206.872             201.356    -19.0948   -19.1956 0.689507
  9732 164453.9              207.235             201.725    -19.1499   -19.189 0.688713
  9745 164673.6              207.601             202.093    -19.1305   -19.1234 0.687915
  9758 164893.3              207.967             202.462    -19.3742   -19.3444 0.687109
  9771 165113.0              208.332             202.829    -19.3454   -19.2806 0.686299
  9784 165332.7              208.7             203.198    -19.4792   -19.4857 0.685481
  9797 165552.4              209.066             203.566    -19.6731   -19.9236 0.684655
  9810 165772.1              209.431             203.935    -19.6351   -19.8315 0.683823
  9823 165991.8              209.797             204.304    -19.5013   -19.6657 0.682982
  9836 166211.5              210.164             204.672    -19.6067   -19.559 0.682136
  9849 166431.2              210.531             205.04    -19.8088   -19.8619 0.681283
  9862 166650.9              210.894             205.409    -19.9807   -20.087 0.680422
  9875 166870.6              211.259             205.776    -20.1097   -20.0674 0.679556
  9888 167090.3              211.628             206.145    -20.1585   -20.2287 0.678679
  9901 167310.0              211.995             206.513    -20.2546   -20.3102 0.677796
  9914 167529.7              212.359             206.881    -20.1562   -20.1725 0.676905
  9927 167749.4              212.725             207.249    -20.2313   -20.1847 0.676005
  9940 167969.1              213.093             207.617    -20.257   -20.3013 0.675099
  9953 168188.8              213.46             207.986    -20.3349   -20.4264 0.674181
  9966 168408.5              213.824             208.354    -20.4878   -20.6497 0.673258
  9979 168628.2              214.19             208.722    -20.6031   -20.746 0.672325
  9992 168847.9              214.558             209.09    -20.7034   -20.8543 0.671383
 10005 169067.6              214.927             209.458    -20.7058   -20.9222 0.670433
 10018 169287.3              215.292             209.826    -20.6586   -20.82 0.669472
 10031 169507.0              215.657             210.195    -20.8676   -20.9895 0.668503
 10044 169726.7              216.026             210.564    -21.1336   -21.3807 0.667520
 10057 169946.4              216.394             210.933    -21.2831   -21.3816 0.666531
 10070 170166.1              216.76             211.302    -21.3767   -21.385 0.665530
 10083 170385.8              217.123             211.672    -21.3951   -21.508 0.664517
 10096 170605.5              217.49             212.04    -21.3619   -21.4521 0.663496
 10109 170825.2              217.857             212.41    -21.5233   -21.683 0.662464
 10122 171044.9              218.224             212.779    -21.7164   -21.9087 0.661422
 10135 171264.6              218.588             213.149    -21.8689   -21.964 0.660366
 10148 171484.3              218.956             213.518    -21.8496   -22.1235 0.659301
 10161 171704.0              219.318             213.887    -21.9685   -22.1811 0.658225
 10174 171923.7              219.68             214.256    -22.1733   -22.2872 0.657135
 10187 172143.4              220.046             214.625    -22.2962   -22.5325 0.656038
 10200 172363.1              220.414             214.993    -22.2363   -22.4462 0.654929
 10213 172582.8              220.782             215.361    -22.5373   -22.6651 0.653808
 10226 172802.5              221.146             215.729    -22.4536   -22.4513 0.652674
 10239 173022.2              221.512             216.097    -22.518   -22.641 0.651529
 10252 173241.9              221.88             216.465    -22.604   -22.7649 0.650369
 10265 173461.6              222.247             216.833    -22.7154   -22.9694 0.649198
 10278 173681.3              222.616             217.202    -22.8939   -23.164 0.648011
 10291 173901.0              222.986             217.571    -23.1115   -23.3369 0.646808
 10304 174120.7              223.35             217.94    -23.1071   -23.2785 0.645589
 10317 174340.4              223.71             218.309    -23.4129   -23.6982 0.644358
 10330 174560.1              224.075             218.677    -23.5325   -24.0066 0.643114
 10343 174779.8              224.443             219.045    -23.591   -23.8825 0.641857
 10356 174999.5              224.813             219.413    -23.6434   -23.9753 0.640583
 10369 175219.2              225.181             219.782    -23.8719   -24.1746 0.639287
 10382 175438.9              225.541             220.151    -24.1136   -24.3926 0.637980
 10395 175658.6              225.905             220.519    -24.2251   -24.6614 0.636655
 10408 175878.3              226.273             220.888    -24.1853   -24.548 0.635314
 10421 176098.0              226.642             221.256    -24.4505   -24.7232 0.633958
 10434 176317.7              227.009             221.624    -24.5843   -25.0088 0.632582
 10447 176537.4              227.377             221.992    -24.6677   -24.9822 0.631190
 10460 176757.1              227.743             222.36    -24.8355   -25.2877 0.629776
 10473 176976.8              228.104             222.729    -24.8059   -25.1689 0.628343
 10486 177196.5              228.469             223.097    -25.0624   -25.4626 0.626892
 10499 177416.2              228.836             223.465    -25.4393   -25.7666 0.625423
 10512 177635.9              229.205             223.834    -25.4735   -25.7358 0.623928
 10525 177855.6              229.569             224.202    -25.6312   -25.999 0.622420
 10538 178075.3              229.934             224.57    -25.8387   -26.114 0.620888
 10551 178295.0              230.301             224.938    -26.0757   -26.4867 0.619333
 10564 178514.7              230.67             225.305    -26.223   -26.7245 0.617761
 10577 178734.4              231.04             225.674    -26.5632   -27.1132 0.616158
 10590 178954.1              231.408             226.043    -26.569   -27.0413 0.614531
 10603 179173.8              231.776             226.412    -26.8457   -27.1499 0.612877
 10616 179393.5              232.139             226.781    -27.1311   -27.4324 0.611198
 10629 179613.2              232.5             227.15    -27.3346   -27.6922 0.609496
 10642 179832.9              232.863             227.52    -27.6324   -27.93 0.607766
 10655 180052.6              233.228             227.887    -27.6696   -27.9315 0.606018
 10668 180272.3              233.596             228.255    -27.9767   -28.2721 0.604240
 10681 180492.0              233.966             228.623    -28.2096   -28.7115 0.602433
 10694 180711.7              234.335             228.992    -28.294   -28.7144 0.600592
 10707 180931.4              234.702             229.361    -28.5151   -28.9736 0.598719
 10720 181151.1              235.069             229.73    -28.8369   -29.1181 0.596818
 10733 181370.8              235.435             230.101    -29.1725   -29.354 0.594877
 10746 181590.5              235.799             230.469    -29.5041   -29.9436 0.592913
 10759 181810.2              236.16             230.838    -29.747   -30.2672 0.590913
 10772 182029.9              236.524             231.207    -30.0034   -30.4305 0.588882
 10785 182249.6              236.893             231.574    -30.1051   -30.6452 0.586820
 10798 182469.3              237.263             231.942    -30.3018   -30.7371 0.584720
 10811 182689.0              237.633             232.312    -30.7398   -31.1131 0.582576
 10824 182908.7              237.997             232.682    -31.1138   -31.4978 0.580386
 10837 183128.4              238.36             233.052    -31.3465   -31.7707 0.578161
 10850 183348.1              238.724             233.42    -31.6183   -32.1183 0.575899
 10863 183567.8              239.085             233.788    -31.8908   -32.4894 0.573602
 10876 183787.5              239.45             234.156    -32.0964   -32.5896 0.571262
 10889 184007.2              239.817             234.523    -32.2758   -32.6949 0.568879
 10902 184226.9              240.185             234.89    -32.6433   -33.0675 0.566455
 10915 184446.6              240.556             235.257    -32.9732   -33.355 0.563981
 10928 184666.3              240.925             235.626    -33.4426   -33.8873 0.561449
 10941 184886.0              241.292             235.994    -33.8856   -34.3919 0.558871
 10954 185105.7              241.659             236.363    -34.2804   -34.6657 0.556235
 10967 185325.4              242.024             236.732    -34.7267   -35.1004 0.553543
 10980 185545.1              242.387             237.1    -35.2202   -35.618 0.550798
 10993 185764.8              242.75             237.468    -35.5187   -35.9711 0.548005
 11006 185984.5              243.116             237.837    -35.9813   -36.5115 0.545144
 11019 186204.2              243.487             238.205    -36.4965   -37.1964 0.542225
 11032 186423.9              243.858             238.573    -36.9368   -37.7601 0.539240
 11045 186643.6              244.225             238.943    -37.2489   -37.832 0.536180
 11058 186863.3              244.59             239.312    -37.865   -38.2494 0.533054
 11071 187083.0              244.953             239.682    -38.4501   -38.7459 0.529856
 11084 187302.7              245.314             240.05    -39.0104   -39.3793 0.526599
 11097 187522.4              245.677             240.419    -39.4585   -39.8084 0.523263
 11110 187742.1              246.042             240.786    -39.9953   -40.4676 0.519855
 11123 187961.8              246.408             241.153    -40.3566   -40.7459 0.516375
 11136 188181.5              246.774             241.521    -40.8794   -41.3721 0.512807
 11149 188401.2              247.145             241.888    -41.523   -41.9682 0.509154
 11162 188620.9              247.512             242.257    -42.0035   -42.4257 0.505404
 11175 188840.6              247.879             242.624    -42.5591   -42.8545 0.501571
 11188 189060.3              248.246             242.992    -43.3582   -43.7054 0.497638
 11201 189280.0              248.615             243.359    -44.005   -44.4136 0.493609
 11214 189499.7              248.984             243.727    -44.8067   -45.1533 0.489465
 11227 189719.4              249.346             244.097    -45.2535   -45.5838 0.485206
 11240 189939.1              249.708             244.463    -46.146   -46.392 0.480860
 11253 190158.8              250.074             244.832    -47.0106   -47.2782 0.476383
 11266 190378.5              250.44             245.199    -47.8812   -48.194 0.471794
 11279 190598.2              250.807             245.567    -48.6048   -48.9523 0.467081
 11292 190817.9              251.175             245.934    -49.3904   -49.7392 0.462242
 11305 191037.6              251.542             246.302    -50.3005   -50.7306 0.457258
 11318 191257.3              251.907             246.669    -51.2563   -51.7838 0.452139
 11331 191477.0              252.272             247.037    -52.1408   -52.6099 0.446867
 11344 191696.7              252.637             247.404    -53.0047   -53.4681 0.441456
 11357 191916.4              253.006             247.772    -54.087   -54.5474 0.435873
 11370 192136.1              253.374             248.139    -55.1631   -55.6243 0.430128
 11383 192355.8              253.74             248.508    -56.2569   -56.6501 0.424196
 11396 192575.5              254.107             248.876    -57.4289   -57.8275 0.418095
 11409 192795.2              254.475             249.244    -58.7293   -59.0217 0.411793
 11422 193014.9              254.842             249.613    -59.9586   -60.3591 0.405296
 11435 193234.6              255.207             249.981    -61.278   -61.6594 0.398599
 11448 193454.3              255.572             250.35    -62.6596   -63.1828 0.391665
 11461 193674.0              255.937             250.717    -64.0177   -64.5222 0.384537
 11474 193893.7              256.303             251.086    -65.5833   -66.1026 0.377151
 11487 194113.4              256.667             251.455    -66.947   -67.374 0.369514
 11500 194333.1              257.034             251.823    -68.6133   -68.9567 0.361635
 11513 194552.8              257.402             252.192    -70.1893   -70.4833 0.353480
 11526 194772.5              257.767             252.561    -71.8477   -72.2108 0.345031
 11539 194992.2              258.133             252.929    -73.6255   -74.0443 0.336305
 11552 195211.9              258.497             253.297    -75.5137   -75.9196 0.327284
 11565 195431.6              258.862             253.664    -77.3922   -77.8081 0.317943
 11578 195651.3              259.228             254.032    -79.4551   -79.8202 0.308244
 11591 195871.0              259.594             254.399    -81.5291   -81.8674 0.298204
 11604 196090.7              259.961             254.767    -83.6848   -84.0183 0.287769
 11617 196310.4              260.33             255.134    -85.9541   -86.3728 0.276946
 11630 196530.1              260.698             255.501    -88.3925   -88.9183 0.265700
 11643 196749.8              261.061             255.87    -90.8986   -91.4502 0.253969
 11656 196969.5              261.426             256.237    -93.4854   -93.9026 0.241835
 11669 197189.2              261.792             256.603    -96.106   -96.4631 0.229213
 11682 197408.9              262.158             256.97    -98.7967   -99.2165 0.216067
 11695 197628.6              262.522             257.337   -101.64  -102.097 0.202337
 11708 197848.3              262.887             257.703   -104.442  -104.849 0.188083
 11721 198068.0              263.253             258.07   -107.114  -107.512 0.173154
 11734 198287.7              263.622             258.436   -109.769  -110.238 0.157582
 11747 198507.4              263.992             258.802   -112.239  -112.633 0.141339
 11760 198727.1              264.357             259.169   -114.303  -114.725 0.124251
 11773 198946.8              264.722             259.535   -115.385  -115.864 0.106405
 11786 199166.5              265.086             259.902   -114.986  -115.478 0.087671
 11799 199386.2              265.452             260.268   -112.041  -112.534 0.068025
 11812 199605.9              265.818             260.635   -106.71  -107.196 0.047385
 11825 199825.6              266.185             261.002    -97.8786   -98.4267 0.025598
 11838 200045.3              266.552             261.369    -85.8296   -86.3475 0.002627
 11851 200265.0              266.918             261.737    -70.8591   -71.4458      NaN
 11864 200484.7              267.284             262.105    -57.1182   -57.6174      NaN
 11877 200704.4              267.651             262.473    -45.5774   -46.0062      NaN
 11890 200924.1              268.018             262.842    -38.4039   -38.8176      NaN
 11903 201143.8              268.383             263.211    -34.9288   -35.3794      NaN
 11916 201363.5              268.752             263.579    -33.233   -33.718      NaN
 11929 201583.2              269.122             263.949    -32.3756   -32.9577      NaN
 11942 201802.9              269.492             264.319    -31.9282   -32.4605      NaN
 11955 202022.6              269.859             264.69    -31.7924   -32.2674      NaN
 11968 202242.3              270.223             265.061    -31.697   -32.1146      NaN
 11981 202462.0              270.583             265.43    -31.6831   -32.1443      NaN
 11994 202681.7              270.944             265.801    -31.6617   -32.2057      NaN
 12007 202901.4              271.308             266.168    -31.6307   -32.2163      NaN
 12020 203121.1              271.675             266.537    -31.5725   -32.0941      NaN
 12033 203340.8              272.041             266.905    -31.5463   -32.0173      NaN
 12046 203560.5              272.407             267.272    -31.561   -32.0221      NaN
 12059 203780.2              272.776             267.64    -31.6116   -32.0599      NaN
 12072 203999.9              273.146             268.009    -31.6028   -32.009      NaN
 12085 204219.6              273.516             268.377    -31.5755   -32.0104      NaN
 12098 204439.3              273.882             268.746    -31.6291   -32.0938      NaN
 12111 204659.0              274.244             269.115    -31.6937   -32.1365      NaN
 12124 204878.7              274.607             269.482    -31.6964   -32.1594      NaN
 12137 205098.4              274.972             269.851    -31.6002   -32.0866      NaN
 12150 205318.1              275.338             270.218    -31.6109   -32.1274      NaN
 12163 205537.8              275.705             270.585    -31.672   -32.1815      NaN
 12176 205757.5              276.072             270.954    -31.7481   -32.2654      NaN
 12189 205977.2              276.439             271.321    -31.7897   -32.3208      NaN
 12202 206196.9              276.804             271.688    -31.8164   -32.3313      NaN
 12215 206416.6              277.173             272.056    -31.8007   -32.2913      NaN
 12228 206636.3              277.541             272.423    -31.8524   -32.3636      NaN
 12241 206856.0              277.906             272.791    -31.872   -32.3939      NaN
 12254 207075.7              278.27             273.157    -31.9014   -32.4128      NaN
 12267 207295.4              278.636             273.526    -31.9169   -32.4272      NaN
 12280 207515.1              279.004             273.893    -32.0266   -32.5205      NaN
 12293 207734.8              279.369             274.261    -31.9664   -32.4633      NaN
 12306 207954.5              279.735             274.629    -31.9523   -32.487      NaN
 12319 208174.2              280.102             274.996    -31.9586   -32.512      NaN
 12332 208393.9              280.47             275.363    -31.954   -32.4692      NaN
 12345 208613.6              280.835             275.731    -31.951   -32.4233      NaN
 12358 208833.3              281.202             276.098    -31.9887   -32.4645      NaN
 12371 209053.0              281.57             276.467    -32.0113   -32.4844      NaN
 12384 209272.7              281.935             276.835    -32.0211   -32.4757      NaN
 12397 209492.4              282.3             277.203    -32.005   -32.5118      NaN
 12410 209712.1              282.665             277.572    -31.9845   -32.4895      NaN
 12423 209931.8              283.032             277.939    -31.9872   -32.5144      NaN
 12436 210151.5              283.399             278.307    -31.9932   -32.4873      NaN
 12449 210371.2              283.764             278.675    -32.0028   -32.4647      NaN
 12462 210590.9              284.129             279.042    -31.9844   -32.4535      NaN
 12475 210810.6              284.494             279.41    -31.9851   -32.4556      NaN
 12488 211030.3              284.86             279.777    -31.9979   -32.4666      NaN
 12501 211250.0              285.229             280.145    -32.0028   -32.4929      NaN
 12514 211469.7              285.596             280.512    -31.9593   -32.4366      NaN
 12527 211689.4              285.961             280.88    -31.957   -32.4442      NaN
 12540 211909.1              286.326             281.247    -31.9591   -32.4416      NaN
 12553 212128.8              286.693             281.615    -31.9577   -32.4483      NaN
 12566 212348.5              287.059             281.982    -31.9553   -32.4394      NaN
 12579 212568.2              287.425             282.349    -31.9614   -32.4476      NaN
 12592 212787.9              287.792             282.717    -31.9566   -32.4592      NaN
 12605 213007.6              288.159             283.084    -31.9539   -32.4504      NaN
 12618 213227.3              288.523             283.452    -31.9311   -32.4313      NaN
 12631 213447.0              288.888             283.819    -31.9306   -32.4324      NaN
 12644 213666.7              289.256             284.186    -31.9235   -32.4316      NaN
 12657 213886.4              289.623             284.554    -31.9313   -32.4407      NaN
 12670 214106.1              289.989             284.921    -31.9016   -32.4097      NaN
 12683 214325.8              290.356             285.289    -31.9165   -32.4561      NaN
 12696 214545.5              290.722             285.657    -31.9385   -32.4861      NaN
 12709 214765.2              291.087             286.025    -31.9601   -32.5047      NaN
 12722 214984.9              291.454             286.391    -31.9602   -32.5031      NaN
 12735 215204.6              291.819             286.759    -31.9451   -32.4913      NaN
 12748 215424.3              292.187             287.127    -31.95   -32.5149      NaN
 12761 215644.0              292.553             287.495    -31.954   -32.5282      NaN
 12774 215863.7              292.92             287.863    -31.9719   -32.5404      NaN
 12787 216083.4              293.286             288.231    -31.9825   -32.5537      NaN
 12800 216303.1              293.65             288.598    -31.9682   -32.5619      NaN
 12813 216522.8              294.016             288.965    -31.9769   -32.5695      NaN
 12826 216742.5              294.383             289.332    -31.9506   -32.541      NaN
 12839 216962.2              294.749             289.701    -31.9366   -32.5512      NaN
 12852 217181.9              295.115             290.068    -31.9427   -32.5537      NaN
 12865 217401.6              295.48             290.435    -31.9384   -32.5577      NaN
 12878 217621.3              295.848             290.801    -31.9145   -32.5578      NaN
 12891 217841.0              296.216             291.168    -31.8818   -32.5496      NaN
 12900 217993.1              296.471             291.422    -31.8597   -32.5373      NaN