File: i_data/0.10Kmin/mean_H2O-NH3_0g.csv
Index,Time(s),Furnace Temperature(K),Sample Temperature(K),HeatFlow(mW),Q_Corrected,T(K),Sample Temperature(K)_2
57.0,946.4,298.149,299.0,0.990192,0.990192,299.0,299.005
13796.7,233147,299.046,298.0,0.708517,0.708517,298.0,298.005
11261.1,190296,297.981,297.0,0.538472,0.538472,297.0,297.075
10308,174189,296.911,296.0,0.449726,0.449726,296.0,296.035
9628.5,162704.75,295.819,295.0,0.414909,0.414909,295.0,295.029
9379.36,158494,294.933,294.0,0.449409,0.449409,294.0,294.007
9395.34,158764.346,293.791,293.0,0.476282,0.476282,293.0,292.995
9559.41,161537,292.831,292.0,0.50633,0.50633,292.0,291.995
9467.0,159975.4,291.583,291.0,0.485683,0.485683,291.0,290.997
9706.5,164022.95,290.798,290.0,0.489806,0.489806,290.0,289.994
9882.3,166994,289.966,289.0,0.497054,0.497054,289.0,288.992
9794.17,165505,288.806,288.0,0.495178,0.495178,288.0,288.003
9833.06,166162,287.828,287.0,0.49887,0.49887,287.0,287.006
9745.41,164681,286.672,286.0,0.498951,0.498951,286.0,286.002
9783.83,165330,285.708,285.0,0.492933,0.492933,285.0,284.993
9904.44,167368,284.89,284.0,0.488365,0.488365,284.0,283.991
9879.44,166946,283.876,283.0,0.492331,0.492331,283.0,283.007
9709.89,164080,282.618,282.0,0.494134,0.494134,282.0,282
9828.89,166091,281.814,281.0,0.507571,0.507571,281.0,280.991
9803.89,165669,280.81,280.0,0.5131,0.5131,280.0,280.002
9836.8,166225,279.891,279.0,0.516364,0.516364,279.0,279.002
9753.11,164811,278.786,278.0,0.568127,0.568127,278.0,278.001
9525.7,160967,277.452,277.0,0.580915,0.580915,277.0,277
9703.33,163969,276.777,276.0,0.595718,0.595718,276.0,276
9735.37,164511,275.871,275.0,0.656376,0.656376,275.0,274.999
9652.56,163111,274.779,274.0,0.65366,0.65366,274.0,273.998
9684.15,163645,273.876,273.0,0.66377,0.66377,273.0,272.998
9601.78,162253,272.785,272.0,0.657967,0.657967,272.0,271.999
9378.98,158488,271.464,271.0,0.695666,0.695666,271.0,271.001
9607.93,162357,270.886,270.0,0.661468,0.661468,270.0,269.993
9526.22,160976,269.806,269.0,0.645234,0.645234,269.0,268.995
9501.22,160554,268.827,268.0,0.6372,0.6372,268.0,268.008
9339.74,157825,267.6,267.0,0.741685,0.741685,267.0,267.002
9450.67,159699,266.837,266.0,0.779227,0.779227,266.0,265.995
9232.5,156012.35,265.524,265.0,0.742295,0.742295,265.0,265.002
9455.5,159781.05,264.955,264.0,0.753609,0.753609,264.0,263.999
9183.5,155184.25,263.545,263.0,0.686886,0.686886,263.0,262.998
9404.5,158919.15,262.978,262.0,0.735885,0.735885,262.0,261.999
9134.5,154356.15,261.576,261.0,0.743043,0.743043,261.0,261
9110.5,153950.55,260.599,260.0,0.742015,0.742015,260.0,260.001
9142.87,154498,259.704,259.0,0.790558,0.790558,259.0,258.993
9061.74,153126,258.617,258.0,0.796378,0.796378,258.0,257.988
9037.74,152721,257.644,257.0,0.73479,0.73479,257.0,256.994
9069.4,153256,256.751,256.0,0.794848,0.794848,256.0,255.992
8988.98,151897,255.672,255.0,0.744095,0.744095,255.0,254.992
8964.98,151491,254.705,254.0,0.748896,0.748896,254.0,254.003
8995.94,152014,253.818,253.0,0.82106,0.82106,253.0,253.005
8741.02,147706,252.432,252.0,0.800334,0.800334,252.0,251.999
8946.94,151186,251.841,251.0,0.844015,0.844015,251.0,250.995
8867.7,149847,250.769,250.0,0.836151,0.836151,250.0,250.003
8727.25,147473.625,249.588,249.0,0.767204,0.767204,249.0,249.003
8647.02,146118,248.501,248.0,0.821236,0.821236,248.0,247.991
8624.02,145729,247.522,247.0,0.92542,0.92542,247.0,246.993
8824.94,149125,246.935,246.0,0.771754,0.771754,246.0,245.996
8577.02,144935,245.57,245.0,0.695072,0.695072,245.0,245.001
8554.02,144546,244.597,244.0,0.792309,0.792309,244.0,244.007
8586.0,145086.5,243.71,243.0,0.895672,0.895672,243.0,243.005
8346.71,141042,242.342,242.0,0.98084,0.98084,242.0,241.994
8484.53,143372,241.647,241.0,0.951681,0.951681,241.0,240.995
8515.75,143899.275,240.767,240.0,0.898676,0.898676,240.0,239.999
8279.44,139906,239.411,239.0,1.06584,1.06584,239.0,238.994
8415.04,142197,238.718,238.0,1.02612,1.02612,238.0,238.001
8290.73,140097,237.563,237.0,0.844106,0.844106,237.0,237.001
8212.44,138773,236.482,236.0,0.985399,0.985399,236.0,235.992
8190.44,138401,235.51,235.0,0.971231,0.971231,235.0,234.994
8168.44,138030,234.539,234.0,1.01798,1.01798,234.0,234
8200.94,138579,233.655,233.0,0.962703,0.962703,233.0,232.998
8123.71,137274,232.583,232.0,0.923542,0.923542,232.0,231.998
8101.71,136902,231.616,231.0,0.988585,0.988585,231.0,231.01
7989.82,135011,230.477,230.0,0.843678,0.843678,230.0,230.004
8057.25,136150.625,229.655,229.0,0.98862,0.98862,229.0,229
7891.29,133346,228.431,228.0,0.890963,0.890963,228.0,228.008
7924.98,133915.262,227.546,227.0,0.919963,0.919963,227.0,226.999
7848.57,132624,226.469,226.0,0.925515,0.925515,226.0,225.991
7827.57,132269,225.498,225.0,0.798796,0.798796,225.0,224.996
7860.42,132824.198,224.614,224.0,0.720292,0.720292,224.0,223.994
7784.86,131547,223.543,223.0,0.887654,0.887654,223.0,222.994
7629.9,128928,222.331,222.0,0.924534,0.924534,222.0,221.996
7743.14,130842,221.598,221.0,0.978603,0.978603,221.0,221.001
7643.88,129165,220.484,220.0,0.947961,0.947961,220.0,219.998
7700.71,130125,219.647,219.0,0.833225,0.833225,219.0,218.998
7548.6,127554.44,218.452,218.0,0.727644,0.727644,218.0,218.011
7582.0,128118.9,217.572,217.0,0.73758,0.73758,217.0,217.006
7383.33,124761,216.267,216.0,0.594094,0.594094,216.0,215.994
7488.2,126534,215.517,215.0,0.623269,0.623269,215.0,214.995
7468.2,126196,214.555,214.0,0.70856,0.70856,214.0,214.009
7379.27,124692.75,213.452,213.0,0.790339,0.790339,213.0,213.005
7306.02,123455,212.368,212.0,0.726093,0.726093,212.0,211.993
7408.1,125179.99,211.621,211.0,0.737011,0.737011,211.0,211.004
7320.35,123697,210.524,210.0,0.81089,0.81089,210.0,210.008
7132.96,120530.15,209.225,209.0,0.765961,0.765961,209.0,208.994
7229.33,122159,208.458,208.0,0.672245,0.672245,208.0,207.993
7210.33,121838,207.498,207.0,0.622632,0.622632,207.0,207.003
7130.87,120495,206.412,206.0,0.502024,0.502024,206.0,205.997
7171.96,121189,205.554,205.0,0.511155,0.511155,205.0,204.995
7041.31,118981,204.395,204.0,0.612884,0.612884,204.0,204.006
7023.31,118677.0,203.433,203.0,0.587521,0.587521,203.0,203.011
6951.5,117463.45,202.349,202.0,0.641016,0.641016,202.0,202.001
6986.96,118062.75,201.459,201.0,0.557719,0.557719,201.0,200.992
6968.96,117759,200.491,200.0,0.547835,0.547835,200.0,200.004
6846.87,115695,199.326,199.0,0.390122,0.390122,199.0,199.01
6880.83,116269,198.444,198.0,0.34627,0.34627,198.0,198
6812.21,115109,197.381,197.0,0.376399,0.376399,197.0,196.993
6795.21,114822,196.428,196.0,0.33626,0.33626,196.0,196.001
6680.59,112885,195.289,195.0,0.201682,0.201682,195.0,195.005
6664.59,112615,194.336,194.0,0.221264,0.221264,194.0,194.002
6698.73,113192,193.468,193.0,0.375024,0.375024,193.0,192.995
6631.94,112063,192.407,192.0,0.247333,0.247333,192.0,191.995
6524.45,110246,191.281,191.0,0.191182,0.191182,191.0,190.999
6649.38,112358,190.576,190.0,0.140419,0.140419,190.0,189.999
6493.45,109722,189.351,189.0,0.00326091,0.00326091,189.0,189.005
6392.125,108010,188.222,188.0,0.0883673,0.0883673,188.0,188.005
6512.57,110046,187.51,187.0,-0.0273302,-0.0273302,187.0,187.001
6363.125,107520,186.29,186.0,0.0148775,0.0148775,186.0,186
6349.125,107283,185.332,185.0,-0.0222402,-0.0222402,185.0,185.003
6254.3,105681,184.218,184.0,-0.135519,-0.135519,184.0,184.001
6369.42,107626,183.491,183.0,-0.153679,-0.153679,183.0,182.997
6227.3,105224,182.281,182.0,0.00751705,0.00751705,182.0,181.998
6214.3,105005,181.322,181.0,-0.182626,-0.182626,181.0,181.005
6173.51,104315,180.302,180.0,-0.00927192,-0.00927192,180.0,179.999
6188.07,104561,179.397,179.0,-0.15128,-0.15128,179.0,178.998
6100.69,103085,178.307,178.0,-0.0762164,-0.0762164,178.0,178.011
6064.5,102473.15,177.3,177.0,-0.205398,-0.205398,177.0,177.002
6005.85,101482,176.236,176.0,-0.163191,-0.163191,176.0,175.992
5994.85,101296,175.284,175.0,-0.221117,-0.221117,175.0,174.996
6029.7,101885.03,174.41,174.0,-0.366295,-0.366295,174.0,173.999
5905.75,99790.275,173.236,173.0,-0.1778484,-0.1778484,173.0,172.999
5895.75,99621.275,172.281,172.0,-0.175896,-0.175896,172.0,172.004
5867.85,99149.8,171.286,171.0,-0.195349,-0.195349,171.0,171
5813.02,98223.1,170.234,170.0,-0.254431,-0.254431,170.0,169.993
5804.02,98071,169.282,169.0,-0.316229,-0.316229,169.0,169.001
5779.86,97662.7,168.29,168.0,-0.312737,-0.312737,168.0,168.001
5727.05,96770.2,167.248,167.0,-0.426724,-0.426724,167.0,166.999
5662.67,95682.2,166.178,166.0,-0.37024,-0.37024,166.0,166.003
5698.81,96293,165.302,165.0,-0.212709,-0.212709,165.0,165
5648.11,95436.2,164.253,164.0,-0.265709,-0.265709,164.0,164.002
5630.58,95140,163.271,163.0,-0.339093,-0.339093,163.0,163.002
5581.61,94312.3,162.226,162.0,-0.421036,-0.421036,162.0,162.001
5525.38,93362.1,161.165,161.0,-0.3927636,-0.3927636,161.0,161.008
5561.59,93974,160.285,160.0,-0.406388,-0.406388,160.0,160.007
5467.23,92379.2,159.142,159.0,-0.518251,-0.518251,159.0,159.004
5503.61,92994.1,158.256,158.0,-0.451077,-0.451077,158.0,158.001
5413.57,91472.4,157.122,157.0,-0.43842,-0.43842,157.0,156.997
5450.09,92089.6,156.238,156.0,-0.404424,-0.404424,156.0,155.994
5407.04,91362.2,155.199,155.0,-0.369878,-0.369878,155.0,155
5400.43,91250.4,154.238,154.0,-0.228424,-0.228424,154.0,154.007
5318.81,89871,153.115,153.0,-0.308556,-0.308556,153.0,153.007
5316.7,89835.4,152.145,152.0,-0.475261,-0.475261,152.0,152.001
5353.99,90465.5,151.257,151.0,-0.319624,-0.319624,151.0,150.996
5240.79,88552.4,150.069,150.0,-0.304091,-0.304091,150.0,149.998
5241.79,88569.3,149.118,149.0,-0.416027,-0.416027,149.0,149.001
5243.78,88603,148.162,148.0,-0.40484,-0.40484,148.0,148.001
5244.78,88619.9,147.19,147.0,-0.438152,-0.438152,147.0,146.997
5178.34,87497.1,146.086,146.0,-0.555905,-0.555905,146.0,146.004
5184.04,87593.376,145.143,145.0,-0.574832,-0.574832,145.0,145.004
5156.92,87135.1,144.112,144.0,-0.491828,-0.491828,144.0,143.994
5127.93,86645.2,143.08,143.0,-0.4740924,-0.4740924,143.0,142.996
5137.0,86798.4,142.095,142.0,-0.413286,-0.413286,142.0,142
5169.92,87354.8,141.176,141.0,-0.442308,-0.442308,141.0,140.999
5119.73,86506.55,140.086,140.0,-0.429866,-0.429866,140.0,140
5125.73,86607.95,139.119,139.0,-0.511699,-0.511699,139.0,139
5076.47,85775.5,138.002,138.0,-0.416995,-0.416995,138.0,138.003
5090.0,86004.1,137.059,137.0,-0.472758,-0.472758,137.0,137
5075.0,85750.6,136.071,136.0,-0.486958,-0.486958,136.0,135.996
5062.01,85531.1,135.094,135.0,-0.507896,-0.507896,135.0,134.998
5030.5,84998.55,134.06,134.0,-0.468903,-0.468903,134.0,134.003
5003.8,84547.4,133.017,133.0,-0.485014,-0.485014,133.0,133
4999.55,84475.5,132.019,132.0,-0.492141,-0.492141,132.0,131.995
4997.14,84434.7,131.023,131.0,-0.531268,-0.531268,131.0,130.995
4980.3,84150.2,129.989,130.0,-0.574478,-0.574478,130.0,129.993
4982.84,84193,128.999,129.0,-0.608073,-0.608073,129.0,128.994
4972.71,84021.9,127.983,128.0,-0.605026,-0.605026,128.0,127.998
5001.91,84515.3,127.052,127.0,-0.601196,-0.601196,127.0,127.001
4963.41,83864.8,125.958,126.0,-0.610285,-0.610285,126.0,126.004
4973.79,84040.2,124.991,125.0,-0.650646,-0.650646,125.0,125.004
4968.95,83958.4,123.984,124.0,-0.650523,-0.650523,124.0,124.001
4951.66,83666.2,122.939,123.0,-0.630596,-0.630596,123.0,122.997
4945.36,83559.7,121.935,122.0,-0.640991,-0.640991,122.0,121.996
4931.712,83329,120.943,121.0,-0.665855,-0.665855,121.0,120.994
4930.02,83300.5,119.921,120.0,-0.631892,-0.631892,120.0,119.996
4946.57,83580.2,118.918,119.0,-0.616364,-0.616364,119.0,118.997
4990.66,84325.3,117.932,118.0,-0.601885,-0.601885,118.0,118
5042.28,85197.6,116.89,117.0,-0.595584,-0.595584,117.0,116.998
5142.05,86883.8,115.91,116.0,-0.589443,-0.589443,116.0,116
5221.07,88219.1,114.898,115.0,-0.571565,-0.571565,115.0,114.988
5273,89096.9,113.857,114.0,-0.566374,-0.566374,114.0,113.97
5383.15,90958.3,112.846,113.0,-0.559556,-0.559556,113.0,112.972
5619.07,94945.4,111.83,112.0,-0.559008,-0.559008,112.0,111.961
6008.54,101527,110.882,111.0,-0.564996,-0.564996,111.0,111.004
6264.0,105844.7,110.239,110.0,-0.573674,-0.573674,110.0,110.34