File: i_data/0.10Kmin/mean_H2O-NH3_4.8873g.csv
Index,Time(s),Furnace Temperature(K),Sample Temperature(K),HeatFlow(mW),T(K),Sample Temperature(K)_2
81.0,1352.0,299.456,300.0,11.8745,300.0,299.987
178.5,2999.75,294.812,299.0,16.619,299.0,299.053
13928.2,235369,299.057,298.0,0.380917,298.0,298.218
11547.3,195133,297.869,297.0,-5.56062,297.0,297.06
10518.3,177742.37,296.675,296.0,-7.56281,296.0,296.029
10169.2,171842,295.957,295.0,-9.64031,295.0,295.021
9616.88,162508,294.781,294.0,-4.81459,294.0,294.014
9593.88,162120,293.631,293.0,-2.88604,293.0,293.001
9697.21,163866,292.641,292.0,-2.49335,292.0,291.995
9941.36,167992,291.904,291.0,-4.00276,291.0,290.997
9852.98,166498,290.731,290.0,-2.26902,290.0,289.998
9892.13,167160,289.742,289.0,-1.98156,289.0,288.992
10014.4,169227,288.906,288.0,-2.82105,288.0,287.991
9989.44,168805,287.875,287.0,-2.14925,287.0,287.007
9818.19,165911,286.602,286.0,0.173474,286.0,285.997
9938.89,167950,285.784,285.0,-1.04143,285.0,284.984
9913.89,167528,284.766,284.0,-0.63369,284.0,283.991
9888.89,167105,283.751,283.0,-0.2877,283.0,282.996
9863.89,166683,282.74,282.0,-0.025095,282.0,281.999
9838.89,166260,281.726,281.0,0.158548,281.0,281
10081.8,170365.52,281.16,280.0,-3.38641,280.0,280
9727.5,164377.85,279.63,279.0,0.603965,279.0,279.007
9763.67,164989,278.734,278.0,-3.08805,278.0,278.01
9738.67,164567,277.731,277.0,-22.2091,277.0,277.001
9713.67,164144,276.729,276.0,-130.064,276.0,275.995
9951.6,168165,276.175,275.0,-269.898,275.0,275.004
9719.33,164240,274.822,274.0,-264.708,274.0,274.01
9693.33,163800,273.804,273.0,-224.933,273.0,273.005
9667.33,163361,272.788,272.0,-181.498,272.0,272.002
9641.33,162922,271.78,271.0,-138.886,271.0,270.995
9559.56,161540,270.686,270.0,-104.165,270.0,269.996
9590.11,162056,269.787,269.0,-80.1067,269.0,268.998
9508.78,160681,268.7,268.0,-59.9329,268.0,267.998
9538.89,161190,267.808,267.0,-46.5279,267.0,266.999
9458.0,159823.3,266.726,266.0,-34.1825,266.0,266.001
9487.67,160325,265.835,265.0,-26.4986,265.0,265.003
9407.22,158965,264.754,264.0,-18.963,264.0,264.005
9248.3,156279,263.525,263.0,-11.565,263.0,262.998
9356.67,158111,262.763,262.0,-9.50784,262.0,261.992
9331.67,157688,261.794,261.0,-6.22279,261.0,261.007
9174.36,155030,260.577,260.0,70.2859,260.0,260.001
9093.15,153657,259.482,259.0,318.059,259.0,258.993
9069.15,153252,258.499,258.0,339.117,258.0,258
9100.89,153788,257.606,257.0,310.292,257.0,256.998
9020.39,152428,256.517,256.0,253.803,256.0,255.995
8996.39,152022,255.54,255.0,168.145,255.0,255.001
9027.43,152547,254.653,254.0,98.5086,254.0,253.995
8947.63,151198,253.574,253.0,59.3459,253.0,252.989
8923.63,150792,252.607,252.0,34.9216,252.0,251.996
8953.96,151305,251.727,251.0,19.9473,251.0,250.993
8874.87,149968,250.655,250.0,13.0504,250.0,249.993
8850.87,149563,249.692,249.0,8.51661,249.0,249.004
8711.25,147203.225,248.502,248.0,7.11189,248.0,247.995
8802.35,148743,247.727,247.0,4.20752,247.0,246.989
8608.17,145461,246.456,246.0,5.00292,246.0,245.995
8754.59,147936,245.792,245.0,2.6705,245.0,245.003
8617.0,145610.4,244.614,244.0,3.28912,244.0,244.002
8538.17,144278,243.532,243.0,3.27132,243.0,242.994
8515.17,143889,242.564,242.0,2.96314,242.0,241.998
8546.5,144419,241.682,241.0,2.1114,241.0,240.994
8468.43,143099,240.606,240.0,2.30951,240.0,239.992
8445.43,142711,239.638,239.0,2.11249,239.0,239.002
8422.43,142322,238.672,238.0,1.88743,238.0,238.014
8298.37,140226,237.505,237.0,2.46434,237.0,237.006
8375.94,141536,236.702,236.0,1.47453,236.0,236
8197.94,138528,235.458,235.0,2.47479,235.0,235.006
8230.57,139080,234.57,234.0,1.88295,234.0,233.994
8153.21,137772,233.483,233.0,2.08592,233.0,232.984
8283.96,139982,232.791,232.0,0.806131,232.0,231.998
8108.94,137024,231.556,231.0,1.73938,231.0,231.013
7997.26,135136.794,230.41,230.0,2.20742,230.0,229.999
8064.48,136273,229.586,229.0,1.3982,229.0,228.987
8042.48,135901,228.624,228.0,1.34259,228.0,227.999
7877.57,133114,227.394,227.0,2.07782,227.0,227.003
7998.75,135162,226.693,226.0,0.937616,226.0,226.007
7889.3,133312.27,225.555,225.0,1.31502,225.0,225.003
7813.57,132032,224.477,224.0,1.47278,224.0,223.993
7792.57,131678,223.511,223.0,1.36692,223.0,222.995
7771.57,131323,222.54,222.0,1.35864,222.0,222.001
7803.46,131861.574,221.667,221.0,0.892015,221.0,220.999
7596.6,128365.64,220.346,220.0,1.86548,220.0,219.989
7708.14,130251,219.623,219.0,0.928924,219.0,218.992
7556.3,127684.57,218.419,218.0,1.55662,218.0,217.997
7666.43,129546,217.696,217.0,0.635866,217.0,217.005
7516.0,127003.5,216.504,216.0,1.16336,216.0,216.016
7426.42,125490,215.398,215.0,1.31276,215.0,215
7475.6,126321,214.543,214.0,0.696093,214.0,213.988
7455.6,125983,213.579,213.0,0.617757,213.0,212.999
7314.04,123590,212.394,212.0,1.28069,212.0,212.004
7347.88,124162.35,211.507,211.0,0.940125,211.0,210.992
7395.5,124967.05,210.662,210.0,0.414434,210.0,209.995
7256.04,122610,209.482,209.0,0.987967,209.0,209.009
7175.96,121257,208.385,208.0,1.16938,208.0,208
7217.67,121962,207.522,207.0,0.603899,207.0,206.991
7198.67,121641,206.564,206.0,0.399381,206.0,206.006
7119.68,120306,205.477,205.0,0.618402,205.0,205.006
7048.87,119109,204.394,204.0,0.704563,204.0,204.001
7082.36,119675,203.518,203.0,0.408376,203.0,202.996
7012.19,118489.15,202.446,202.0,0.714287,202.0,201.994
6994.19,118185,201.49,201.0,0.500505,201.0,201.004
6923.17,116985,200.422,200.0,0.605851,200.0,199.999
6853.98,115815,199.346,199.0,0.763197,199.0,198.989
6836.98,115528,198.372,198.0,0.623215,198.0,197.992
6870.5,116094.55,197.496,197.0,0.19086,197.0,196.988
6802.32,114942,196.427,196.0,0.221171,196.0,195.988
6785.32,114655,195.466,195.0,-0.0263296,195.0,195
6671.57,112733,194.317,194.0,0.383418,194.0,194.005
6705.6,113307.74,193.435,193.0,-0.123219,193.0,192.997
6638.93,112181,192.369,192.0,0.277145,192.0,191.992
6622.93,111911,191.403,191.0,0.120567,191.0,191
6655.91,112468,190.529,190.0,-0.363184,190.0,190.003
6500.27,109838,189.294,189.0,0.0986856,189.0,189.001
6485.27,109584,188.335,188.0,-0.135697,188.0,188.002
6518.93,110153,187.459,187.0,-0.602724,187.0,186.999
6454.64,109066,186.407,186.0,-0.310991,186.0,186
6355.375,107389,185.283,185.0,0.277089,185.0,185.005
6389.58,107967,184.412,184.0,-0.21536,184.0,183.998
6326.75,106905.175,183.36,183.0,-0.126751,183.0,182.997
6233.32,105326,182.249,182.0,0.184748,182.0,182.001
6267.95,105911,181.374,181.0,-0.325826,181.0,180.993
6206.7,104876,180.312,180.0,-0.171562,180.0,179.989
6193.7,104657,179.357,179.0,-1.11607,179.0,178.999
6106.45,103182,178.251,178.0,-6.66029,178.0,178.004
6141.02,103766,177.381,177.0,-20.7952,177.0,177
6081.84,102766,176.346,176.0,-7.02273,176.0,176.003
6046.1,102162,175.357,175.0,-0.0739406,175.0,175.003
5921.33,100054,174.183,174.0,1.22469,174.0,173.995
5977.73,101007,173.378,173.0,4.2427,173.0,173.003
5882.89,99403.9,172.266,172.0,-0.315393,172.0,172.002
5827.7,98471.3,171.222,171.0,-4.47895,171.0,170.995
5863.47,99075.7,170.357,170.0,-0.710752,170.0,169.995
5749.27,97145.8,169.201,169.0,0.0695551,169.0,168.994
5741.27,97010.6,168.251,168.0,-0.0592245,168.0,168.001
5720.375,96657.4,167.264,167.0,-0.0695013,167.0,166.998
5668.89,95787.3,166.212,166.0,0.133217,166.0,165.994
5704.94,96396.5,165.332,165.0,-0.17686,165.0,164.996
5600.95,94639.2,164.181,164.0,0.0554672,164.0,163.998
5637.28,95253.1,163.301,163.0,-0.170791,163.0,162.998
5537.77,93571.4,162.154,162.0,0.0293512,162.0,161.998
5532.77,93486.9,161.201,161.0,-0.19789,161.0,161.003
5520.94,93287,160.216,160.0,0.0262702,160.0,159.999
5475.21,92514.2,159.159,159.0,0.386766,159.0,158.996
5511.48,93127.1,158.248,158.0,1.03414,158.0,157.996
5466.68,92370,157.139,157.0,2.6133,157.0,156.995
5547.77,93740.5,156.322,156.0,3.38094,156.0,156
5413.73,91475.2,155.074,155.0,3.81305,155.0,154.999
5492.55,92807.2,154.259,154.0,2.98349,154.0,153.994
5449.62,92081.7,153.171,153.0,2.40404,153.0,152.998
5440.79,91932.5,152.17,152.0,1.55903,152.0,151.996
5399.73,91238.6,151.123,151.0,0.90125,151.0,150.992
5433.32,91806.3,150.244,150.0,0.247947,150.0,149.996
5353.66,90460,149.109,149.0,0.210762,149.0,149.001
5349.5,90389.65,148.144,148.0,-0.0940882,148.0,147.997
5312.28,89760.6,147.098,147.0,-0.171145,147.0,146.995
5346.01,90330.7,146.252,146.0,-0.479559,146.0,146.002
5274.5,89122.2,145.13,145.0,-0.391242,145.0,145
5240.75,88551.7,144.106,144.0,-0.265042,144.0,144
5242.67,88584.2,143.164,143.0,-0.477013,143.0,143.006
5212.72,88078,142.139,142.0,-0.430499,142.0,142.003
5185.08,87610.952,141.07,141.0,-0.366214,141.0,140.993
5185.58,87619.3,140.107,140.0,-0.368258,140.0,139.998
5163.13,87240,139.115,139.0,-0.460905,139.0,139.007
5140.43,86856.3,138.112,138.0,-0.455329,138.0,138.004
5095.0,86088.6,137.047,137.0,-0.369359,137.0,136.997
5072.73,85712.25,136.019,136.0,-0.345696,136.0,135.996
5086.1,85938.2,135.066,135.0,-0.454025,135.0,134.997
5094.1,86073.39,134.113,134.0,-0.55096,134.0,134
5080.22,85838.9,133.058,133.0,-0.557987,133.0,133.003
5089.22,85991,132.054,132.0,-0.634417,132.0,132.001
5077.77,85797.4,131.04,131.0,-0.528972,131.0,131
5049.21,85314.8,130.022,130.0,-0.553712,130.0,130.001
5025.34,84911.3,129.024,129.0,-0.495087,129.0,128.998
4989.84,84311.4,128.006,128.0,-0.562813,128.0,127.998
4976.51,84086,127,127.0,-0.668926,127.0,127.001
4953.65,83699.8,125.97,126.0,-0.615652,126.0,125.997
4950.0,83638.1,124.957,125.0,-0.652882,125.0,124.993
4961.96,83840.2,123.968,124.0,-0.661455,124.0,123.991
4964.36,83880.8,122.959,123.0,-0.690966,123.0,122.994
4960.26,83811.6,121.936,122.0,-0.677783,122.0,121.994
4962.06,83841.9,120.954,121.0,-0.69255,121.0,120.998
4986.38,84252.9,119.983,120.0,-0.735479,120.0,120.001
4989.61,84307.5,118.905,119.0,-0.591821,119.0,119
5028.53,84965.3,117.952,118.0,-0.599826,118.0,117.995
5041.44,85183.5,116.943,117.0,-0.561384,117.0,116.993
5061.44,85521.4,115.921,116.0,-0.509945,116.0,115.996
5095.51,86097.2,114.938,115.0,-0.491722,115.0,114.993
5124.71,86590.7,113.934,114.0,-0.442275,114.0,113.995
5175.76,87453.4,112.946,113.0,-0.453651,113.0,113.006
5241.88,88570.9,111.991,112.0,-0.458012,112.0,111.994
5282.05,89249.8,110.959,111.0,-0.422151,111.0,110.994
5356.8,90513.1,109.992,110.0,-0.468271,110.0,109.999
5431.42,91774.1,108.944,109.0,-0.38069,109.0,108.98
5503.78,92996.9,107.931,108.0,-0.450618,108.0,107.975
5688.47,96118.3,106.83,107.0,-0.420403,107.0,106.931
5968.0,100842.3,106.192,106.0,-0.462911,106.0,106.33