File: z_unorganized_archive/i_data/0.25Kmin/H2O-NH3_4.7459g.csv
NH3-H2O 4wt%  Specific Heat - Large HF,,,,
Creation Date : 6/27/2022 10:38:41 AM,,,,
User : admin,,,,
,,,,
HeatFlow :,,,,
 Initial Mass : 4745.9 mg,,,,
 Molar Mass : 17 g/mol,,,,
,,,,
Index,Time(s),Furnace Temperature(K),Sample Temperature(K),HeatFlow(mW)
1,0,298.952,298.91,38.07456
13,139.2,298.924,298.913,24.01769
25,278.4,298.897,298.914,15.0802
37,417.6,298.869,298.914,9.432388
49,556.8,298.834,298.911,5.896136
61,696,298.787,298.908,3.716178
73,835.2,298.723,298.901,2.42488
85,974.4,298.634,298.89,1.721786
97,1113.6,298.516,298.875,1.434043
109,1252.8,298.364,298.852,1.473176
121,1392,298.174,298.82,1.7809
133,1531.2,297.944,298.778,2.340271
145,1670.4,297.67,298.725,3.14825
157,1809.6,297.3471,298.658,4.206288
169,1948.8,296.964,298.575,5.530613
181,2088,296.51,298.473,7.118798
193,2227.2,295.974,298.348,9.007077
205,2366.4,295.35,298.199,11.2355
217,2505.6,294.641,298.02,13.8656
229,2644.8,293.851,297.807,16.9238
241,2784,293,297.561,20.4374
253,2923.2,292.1036,297.278,24.3977
265,3062.4,291.172,296.96,28.7153
277,3201.6,290.212,296.606,33.33605
289,3340.8,289.232,296.216,38.188
301,3480,288.234,295.793,43.1569
313,3619.2,287.226,295.3371,48.198
325,3758.4,286.211,294.851,53.25368
337,3897.6,285.192,294.335,58.23244
349,4036.8,284.173,293.791,63.0994
361,4176,283.156,293.223,67.78287
373,4315.2,282.145,292.6349,72.20247
385,4454.4,281.139,292.024,76.3121
397,4593.6,280.14,291.391,80.2202
409,4732.8,279.146,290.735,84.0164
421,4872,278.157,290.059,87.6603
433,5011.2,277.174,289.365,91.1515
445,5150.4,276.199,288.6564,94.4629
457,5289.6,275.229,287.933,97.5435
469,5428.8,274.265,287.196,100.378
481,5568,273.31,286.448,102.998
493,5707.2,272.366,285.688,105.398
505,5846.4,271.43,284.92,107.581
517,5985.6,270.504,284.144,109.557
529,6124.8,269.587,283.36,111.347
541,6264,268.68,282.57,112.961
553,6403.2,267.782,281.775,114.425
565,6542.4,266.894,280.976,115.736
577,6681.6,266.013,280.172,116.896
589,6820.8,265.14,279.367,117.893
601,6960,264.271,278.558,118.765
613,7099.2,263.41,277.748,119.568
625,7238.4,262.557,276.936,120.196
637,7377.6,261.708,276.123,120.715
649,7516.8,260.863,275.31,121.145
661,7656,260.024,274.496,121.598
673,7795.2,259.192,273.682,121.902
685,7934.4,258.364,272.869,122.092
697,8073.6,257.54,272.056,122.274
709,8212.8,256.7221,271.243,122.534
721,8352,255.91,270.432,122.782
733,8491.2,255.105,269.623,122.901
745,8630.4,254.306,268.815,122.749
757,8769.6,253.514,268.009,122.677
769,8908.8,252.731,267.204,122.776
781,9048,251.95,266.403,122.686
793,9187.2,251.176,265.605,122.695
805,9326.4,250.407,264.808,122.869
817,9465.6,249.642,264.014,122.729
829,9604.8,248.88,263.224,122.011
841,9744,248.121,262.436,121.516
853,9883.2,247.364,261.65,121.164
865,10022.4,246.613,260.868,120.758
877,10161.6,245.866,260.088,120.375
889,10300.8,245.122,259.312,120.548
901,10440,244.38,258.55,1128.01
913,10579.2,243.645,257.81,1231.77
925,10718.4,242.915,257.068,1194.67
937,10857.6,242.192,256.323,1073.43
949,10996.8,241.472,255.578,932.175
961,11136,240.759,254.832,800.257
973,11275.2,240.05,254.086,671.945
985,11414.4,239.345,253.34,549.603
997,11553.6,238.644,252.595,441.187
1009,11692.8,237.947,251.85,352.867
1021,11832,237.256,251.109,284.844
1033,11971.2,236.569,250.37,234.643
1045,12110.4,235.882,249.634,197.815
1057,12249.6,235.2,248.901,171.344
1069,12388.8,234.519,248.171,151.328
1081,12528,233.843,247.444,136.628
1093,12667.2,233.17,246.721,125.535
1105,12806.4,232.501,246.002,117.235
1117,12945.6,231.833,245.287,110.914
1129,13084.8,231.17,244.574,105.103
1141,13224,230.511,243.866,100.378
1153,13363.2,229.8543,243.16,96.5511
1165,13502.4,229.2,242.46,92.9101
1177,13641.6,228.548,241.761,90.1145
1189,13780.8,227.9,241.066,87.4814
1201,13920,227.255,240.375,84.93785
1213,14059.2,226.614,239.687,82.5189
1225,14198.4,225.973,239.003,80.9973
1237,14337.6,225.336,238.3203,79.08364
1249,14476.8,224.705,237.643,76.8158
1261,14616,224.081,236.968,75.2296
1273,14755.2,223.46,236.298,73.3282
1285,14894.4,222.843,235.631,71.8831
1297,15033.6,222.23,234.966,70.5212
1309,15172.8,221.621,234.306,69.0113
1321,15312,221.016,233.65,67.8775
1333,15451.2,220.414,232.997,66.75846
1345,15590.4,219.815,232.347,65.60018
1357,15729.6,219.219,231.7,64.4947
1369,15868.8,218.626,231.058,63.2067
1381,16008,218.037,230.419,61.9739
1393,16147.2,217.45,229.783,60.8142
1405,16286.4,216.866,229.151,59.4195
1417,16425.6,216.287,228.521,58.4132
1429,16564.8,215.71,227.896,57.7893
1441,16704,215.137,227.274,56.6204
1453,16843.2,214.565,226.655,55.8231
1465,16982.4,213.996,226.039,55.1933
1477,17121.6,213.431,225.426,54.2009
1489,17260.8,212.868,224.817,53.8478
1501,17400,212.308,224.211,53.0587
1513,17539.2,211.75,223.608,52.73646
1525,17678.4,211.195,223.007,52.2476
1537,17817.6,210.643,222.41,51.7278
1549,17956.8,210.093,221.816,51.4721
1561,18096,209.546,221.226,50.9057
1573,18235.2,209.002,220.638,50.2595
1585,18374.4,208.461,220.053,49.1082
1597,18513.6,207.923,219.471,48.7475
1609,18652.8,207.388,218.891,48.7027
1621,18792,206.856,218.316,48.58614
1633,18931.2,206.328,217.743,48.0592
1645,19070.4,205.803,217.173,47.133
1657,19209.6,205.279,216.607,45.9661
1669,19348.8,204.759,216.042,45.3268
1681,19488,204.242,215.481,44.75265
1693,19627.2,203.728,214.923,44.5302
1705,19766.4,203.216,214.368,43.8071
1717,19905.6,202.708,213.816,43.4559
1729,20044.8,202.201,213.2661,42.5856
1741,20184,201.698,212.718,42.1726
1753,20323.2,201.197,212.174,42.2868
1765,20462.4,200.699,211.633,41.9004
1777,20601.6,200.204,211.094,41.4926
1789,20740.8,199.714,210.559,41.2232
1801,20880,199.226,210.024,40.6403
1813,21019.2,198.743,209.494,40.01678
1825,21158.4,198.26,208.9672,38.9855
1837,21297.6,197.78,208.443,39.25
1849,21436.8,197.303,207.922,39.3409
1861,21576,196.829,207.404,39.5358
1873,21715.2,196.357,206.887,39.624
1885,21854.4,195.889,206.374,38.8518
1897,21993.6,195.422,205.864,37.5396
1909,22132.8,194.956,205.356,36.9946
1921,22272,194.492,204.851,36.7698
1933,22411.2,194.029,204.348,36.2412
1945,22550.4,193.567,203.847,35.7033
1957,22689.6,193.109,203.35,35.1032
1969,22828.8,192.65,202.854,34.5206
1981,22968,192.189,202.361,34.7987
1993,23107.2,191.725,201.87,34.2829
2005,23246.4,191.256,201.38,34.0674
2017,23385.6,190.785,200.892,33.52177
2029,23524.8,190.311,200.404,33.2464
2041,23664,189.835,199.918,32.2017
2053,23803.2,189.359,199.433,32.052
2065,23942.4,188.882,198.949,32.4951
2077,24081.6,188.404,198.466,33.0782
2089,24220.8,187.928,197.983,32.8859
2101,24360,187.452,197.502,32.0222
2113,24499.2,186.979,197.02,32.1867
2125,24638.4,186.51,196.54,31.9505
2137,24777.6,186.043,196.062,31.6337
2149,24916.8,185.578,195.584,31.5955
2161,25056,185.117,195.107,31.3123
2173,25195.2,184.659,194.632,31.3239
2185,25334.4,184.205,194.158,31.6796
2197,25473.6,183.759,193.686,31.3437
2209,25612.8,183.318,193.214,31.4853
2221,25752,182.883,192.746,31.3329
2233,25891.2,182.454,192.28,30.9251
2245,26030.4,182.035,191.816,30.6403
2257,26169.6,181.624,191.355,30.5861
2269,26308.8,181.221,190.896,29.95969
2281,26448,180.825,190.441,29.4278
2293,26587.2,180.433,189.989,29.5169
2305,26726.4,180.043,189.542,28.9655
2317,26865.6,179.652,189.096,28.8156
2329,27004.8,179.261,188.654,28.6441
2341,27144,178.867,188.214,28.6973
2353,27283.2,178.471,187.776,27.68
2365,27422.4,178.072,187.342,27.3701
2377,27561.6,177.67,186.908,27.2127
2389,27700.8,177.266,186.477,27.6149
2401,27840,176.861,186.047,27.4881
2413,27979.2,176.457,185.619,26.7638
2425,28118.4,176.05,185.193,26.3458
2437,28257.6,175.642,184.767,26.583
2449,28396.8,175.232,184.342,26.8238
2461,28536,174.818,183.919,26.3711
2473,28675.2,174.4,183.495,26.4433
2485,28814.4,173.985,183.073,25.6908
2497,28953.6,173.575,182.652,25.6068
2509,29092.8,173.172,182.232,25.6361
2521,29232,172.774,181.812,25.3939
2533,29371.2,172.379,181.394,25.3293
2545,29510.4,171.984,180.979,25.0538
2557,29649.6,171.588,180.563,24.7044
2569,29788.8,171.192,180.151,24.6767
2581,29928,170.799,179.739,24.6917
2593,30067.2,170.409,179.328,23.9978
2605,30206.4,170.027,178.918,24.1076
2617,30345.6,169.651,178.509,24.01327
2629,30484.8,169.278,178.104,23.7642
2641,30624,168.899,177.701,23.8173
2653,30763.2,168.518,177.298,23.5839
2665,30902.4,168.134,176.897,23.7564
2677,31041.6,167.754,176.497,23.7475
2689,31180.8,167.38,176.098,23.3886
2701,31320,167.012,175.701,23.502
2713,31459.2,166.644,175.305,23.2179
2725,31598.4,166.269,174.912,22.7668
2737,31737.6,165.887,174.519,22.5458
2749,31876.8,165.501,174.126,22.5811
2761,32016,165.117,173.735,22.1817
2773,32155.2,164.739,173.345,22.0182
2785,32294.4,164.369,172.954,22.1279
2797,32433.6,164.005,172.566,21.9803
2809,32572.8,163.641,172.179,21.5509
2821,32712,163.274,171.793,21.7301
2833,32851.2,162.907,171.408,21.71646
2845,32990.4,162.545,171.025,21.5321
2857,33129.6,162.185,170.643,21.7005
2869,33268.8,161.825,170.262,21.5208
2881,33408,161.461,169.883,21.5236
2893,33547.2,161.098,169.504,21.5461
2905,33686.4,160.739,169.125,21.6205
2917,33825.6,160.386,168.75,21.3999
2929,33964.8,160.035,168.374,21.0149
2941,34104,159.677,168,21.0895
2953,34243.2,159.304,167.628,20.7719
2965,34382.4,158.914,167.254,20.6991
2977,34521.6,158.516,166.879,20.7974
2989,34660.8,158.116,166.503,20.58148
3001,34800,157.723,166.127,20.6554
3013,34939.2,157.341,165.751,20.8935
3025,35078.4,156.966,165.375,20.7749
3037,35217.6,156.593,164.999,20.8221
3049,35356.8,156.221,164.624,20.7225
3061,35496,155.855,164.249,20.6143
3073,35635.2,155.489,163.875,20.3617
3085,35774.4,155.105,163.501,20.234
3097,35913.6,154.693,163.125,20.353
3109,36052.8,154.259,162.748,20.4267
3121,36192,153.819,162.368,20.3086
3133,36331.2,153.388,161.986,20.3293
3145,36470.4,152.973,161.602,20.5686
3157,36609.6,152.565,161.218,20.407
3169,36748.8,152.133,160.832,20.64257
3181,36888,151.65,160.442,20.7507
3193,37027.2,151.133,160.047,20.6459
3205,37166.4,150.613,159.647,20.4657
3217,37305.6,150.108,159.243,20.54585
3229,37444.8,149.628,158.835,21.0223
3241,37584,149.167,158.425,21.3878
3253,37723.2,148.709,158.012,21.8435
3265,37862.4,148.255,157.599,21.8231
3277,38001.6,147.817,157.183,21.8338
3289,38140.8,147.38,156.767,22.1139
3301,38280,146.916,156.35,22.2461
3313,38419.2,146.411,155.93,21.8295
3325,38558.4,145.885,155.505,21.8456
3337,38697.6,145.357,155.077,21.9502
3349,38836.8,144.844,154.644,22.0104
3361,38976,144.349,154.209,22.1887
3373,39115.2,143.878,153.771,22.1774
3385,39254.4,143.425,153.334,22.2499
3397,39393.6,142.983,152.896,22.2105
3409,39532.8,142.556,152.459,22.206
3421,39672,142.146,152.024,22.1912
3433,39811.2,141.756,151.589,22.2557
3445,39950.4,141.375,151.157,22.109
3457,40089.6,140.986,150.727,21.7764
3469,40228.8,140.571,150.299,21.6506
3481,40368,140.133,149.871,21.4774
3493,40507.2,139.679,149.443,21.5477
3505,40646.4,139.225,149.013,21.5304
3517,40785.6,138.783,148.583,21.22027
3529,40924.8,138.359,148.153,21.1136
3541,41064,137.952,147.724,20.9762
3553,41203.2,137.564,147.296,21.1065
3565,41342.4,137.19,146.871,20.9383
3577,41481.6,136.823,146.449,20.9288
3589,41620.8,136.45,146.029,20.8288
3601,41760,136.067,145.611,20.7641
3613,41899.2,135.685,145.195,20.4921
3625,42038.4,135.309,144.779,20.3501
3637,42177.6,134.93,144.367,20.0566
3649,42316.8,134.535,143.956,19.8093
3661,42456,134.121,143.545,19.8315
3673,42595.2,133.704,143.134,19.7041
3685,42734.4,133.296,142.723,19.7538
3697,42873.6,132.902,142.313,19.5151
3709,43012.8,132.524,141.904,19.2702
3721,43152,132.162,141.497,19.2017
3733,43291.2,131.813,141.092,18.8671
3745,43430.4,131.475,140.691,18.7635
3757,43569.6,131.149,140.293,18.8437
3769,43708.8,130.814,139.898,18.7881
3781,43848,130.443,139.504,18.6431
3793,43987.2,130.037,139.11,18.3685
3805,44126.4,129.616,138.715,18.3231
3817,44265.6,129.2,138.32,18.264
3829,44404.8,128.798,137.925,18.0992
3841,44544,128.413,137.53,18.1888
3853,44683.2,128.042,137.136,17.95824
3865,44822.4,127.668,136.743,17.8349
3877,44961.6,127.275,136.351,17.7855
3889,45100.8,126.874,135.958,17.5817
3901,45240,126.4737,135.565,17.6191
3913,45379.2,126.083,135.171,17.6452
3925,45518.4,125.711,134.779,17.4675
3937,45657.6,125.357,134.389,17.4477
3949,45796.8,125.014,134,17.3189
3961,45936,124.661,133.613,17.2212
3973,46075.2,124.265,133.227,17.3311
3985,46214.4,123.834,132.839,17.1835
3997,46353.6,123.389,132.45,17.1328
4009,46492.8,122.952,132.058,17.2507
4021,46632,122.533,131.666,17.267
4033,46771.2,122.131,131.272,17.1206
4045,46910.4,121.754,130.88,17.115
4057,47049.6,121.399,130.488,17.2576
4069,47188.8,121.057,130.099,17.3655
4081,47328,120.705,129.711,17.3575
4093,47467.2,120.337,129.323,17.1084
4105,47606.4,119.959,128.936,16.7903
4117,47745.6,119.591,128.552,16.7882
4129,47884.8,119.24,128.167,16.7418
4141,48024,118.9074,127.785,16.7105
4153,48163.2,118.59,127.406,16.6187
4165,48302.4,118.287,127.028,16.54252
4177,48441.6,117.997,126.655,16.4785
4189,48580.8,117.718,126.285,16.3656
4201,48720,117.441,125.919,16.1918
4213,48859.2,117.146,125.557,15.9431
4225,48998.4,116.845,125.197,15.877
4237,49137.6,116.545,124.84,15.5137
4249,49276.8,116.25,124.486,15.38243
4261,49416,115.966,124.134,15.1845
4273,49555.2,115.696,123.786,15.0357
4285,49694.4,115.427,123.44,14.99668
4297,49833.6,115.143,123.097,14.8634
4309,49972.8,114.85,122.758,14.7467
4321,50112,114.559,122.42,14.6451
4333,50251.2,114.275,122.084,14.3655
4345,50390.4,114.007,121.751,14.149
4357,50529.6,113.755,121.42,13.8334
4369,50668.8,113.514,121.095,13.758
4381,50808,113.259,120.771,13.6424
4393,50947.2,112.972,120.45,13.4767
4405,51086.4,112.66,120.13,13.3532
4417,51225.6,112.331,119.81,13.3084
4429,51364.8,111.993,119.489,13.185
4441,51504,111.667,119.168,13.0583
4453,51643.2,111.355,118.848,13.06838
4465,51782.4,111.064,118.528,12.9628
4477,51921.6,110.791,118.209,12.9545
4489,52060.8,110.53,117.893,13.0611
4501,52200,110.269,117.579,12.8421
4513,52339.2,109.992,117.267,12.6833
4525,52478.4,109.705,116.955,12.5379
4537,52617.6,109.413,116.645,12.4145
4549,52756.8,109.13,116.336,12.3788
4561,52896,108.858,116.029,12.1727
4573,53035.2,108.605,115.723,12.1146
4585,53174.4,108.371,115.419,12.0116
4597,53313.6,108.146,115.12,11.88597
4609,53452.8,107.903,114.822,11.7281
4621,53592,107.627,114.526,11.6132
4633,53731.2,107.328,114.23,11.4743
4645,53870.4,107.031,113.934,11.4422
4657,54009.6,106.735,113.639,11.3906
4669,54148.8,106.45,113.345,11.2042
4681,54288,106.185,113.051,11.2781
4693,54427.2,105.938,112.758,11.1449
4705,54566.4,105.702,112.467,11.0144
4717,54705.6,105.475,112.178,10.9527
4729,54844.8,105.253,111.892,10.8462
4741,54984,105.038,111.609,10.7789
4753,55123.2,104.832,111.329,10.6382
4765,55262.4,104.631,111.052,10.4868
4777,55401.6,104.424,110.778,10.281
4789,55540.8,104.216,110.507,10.2438
4801,55680,104.013,110.237,10.1371
4813,55819.2,103.82,109.972,9.912105
4825,55958.4,103.632,109.71,9.74558
4837,56097.6,103.422,109.45,9.622608
4849,56236.8,103.191,109.192,9.505914
4861,56376,102.949,108.935,9.363659
4873,56515.2,102.701,108.678,9.440769
4885,56654.4,102.453,108.422,9.271082
4897,56793.6,102.216,108.167,9.145771
4909,56932.8,101.997,107.911,9.161892
4921,57072,101.792,107.659,9.184198
4933,57211.2,101.6,107.408,9.084419
4945,57350.4,101.424,107.16,8.946902
4957,57489.6,101.252,106.915,8.878099
4969,57628.8,101.081,106.674,8.752677
4981,57768,100.891,106.434,8.578724
4993,57907.2,100.687,106.197,8.527924
5005,58046.4,100.484,105.961,8.414291
5017,58185.6,100.291,105.726,8.328821
5029,58324.8,100.105,105.493,8.274126
5041,58464,99.9275,105.262,8.168525
5053,58603.2,99.7634,105.034,8.076607
5065,58742.4,99.6133,104.809,8.003856
5077,58881.6,99.4698,104.587,7.82697
5089,59020.8,99.3241,104.369,7.725251
5101,59160,99.1545,104.152,7.586945
5113,59299.2,98.9736,103.938,7.480656
5125,59438.4,98.7966,103.725,7.426515
5137,59577.6,98.6238,103.514,7.352779
5149,59716.8,98.456,103.303,7.288915
5161,59856,98.3003,103.096,7.200046
5173,59995.2,98.1579,102.89,7.148279
5185,60134.4,98.0285,102.688,7.043798
5197,60273.6,97.90383,102.489,6.909834
5209,60412.8,97.7773,102.292,6.84001
5221,60552,97.6391,102.099,6.706974
5233,60691.2,97.4916,101.907,6.627721
5245,60830.4,97.34426,101.719,6.513915
5257,60969.6,97.1985,101.531,6.413352
5269,61108.8,97.0587,101.345,6.311035
5281,61248,96.9291,101.162,6.280954
5293,61387.2,96.8105,100.98,6.133847
5305,61526.4,96.7031,100.802,5.99083
5317,61665.6,96.6025,100.627,5.892795
5329,61804.8,96.5077,100.455,5.781894
5341,61944,96.4197,100.287,5.683292
5353,62083.2,96.3353,100.122,5.565424
5365,62222.4,96.2544,99.9605,5.446051
5377,62361.6,96.1699,99.8025,5.32217
5389,62500.8,96.0716,99.6472,5.20595
5401,62640,95.9548,99.4936,5.099832
5413,62779.2,95.8296,99.34223,4.972702
5425,62918.4,95.7051,99.1917,4.917059
5437,63057.6,95.58605,99.0417,4.867021
5449,63196.8,95.4723,98.8942,4.814722
5461,63336,95.3672,98.7485,4.752693
5473,63475.2,95.2728,98.6042,4.666962
5485,63614.4,95.1894,98.4626,4.62081
5497,63753.6,95.1104,98.3235,4.540654
5509,63892.8,95.0334,98.1868,4.443126
5521,64032,94.9539,98.05274,4.363065
5533,64171.2,94.87554,97.9214,4.258741
5545,64310.4,94.7981,97.792,4.166802
5557,64449.6,94.7269,97.6648,4.055701
5569,64588.8,94.6605,97.54,3.980359
5581,64728,94.5951,97.4181,3.843858
5593,64867.2,94.5283,97.2991,3.755541
5605,65006.4,94.4575,97.1812,3.646318
5617,65145.6,94.3861,97.0667,3.572664
5629,65284.8,94.3182,96.9533,3.506083
5641,65424,94.2534,96.8421,3.452102
5653,65563.2,94.1944,96.7333,3.329407
5665,65702.4,94.14,96.6263,3.278494
5677,65841.6,94.0903,96.5217,3.196554
5689,65980.8,94.0446,96.4203,3.111598
5701,66120,93.9997,96.321,3.01775
5713,66259.2,93.9545,96.2246,2.959132
5725,66398.4,93.9083,96.1301,2.850946
5737,66537.6,93.8613,96.0366,2.775643
5749,66676.8,93.81394,95.9464,2.70467
5761,66816,93.7628,95.8583,2.623764
5773,66955.2,93.706,95.7716,2.548289
5785,67094.4,93.6468,95.6853,2.495397
5797,67233.6,93.5864,95.60076,2.422457
5809,67372.8,93.5303,95.5172,2.374931
5821,67512,93.4797,95.4355,2.312238
5833,67651.2,93.4332,95.3544,2.263109
5845,67790.4,93.39,95.2757,2.222627
5857,67929.6,93.3486,95.1985,2.183113
5869,68068.8,93.3105,95.1225,2.130526
5881,68208,93.2774,95.04917,2.076064
5893,68347.2,93.2491,94.97695,2.019047
5905,68486.4,93.2255,94.90737,1.949242
5917,68625.6,93.2057,94.8394,1.881084
5929,68764.8,93.1892,94.7741,1.816321
5941,68904,93.177,94.7115,1.747561
5953,69043.2,93.1697,94.6505,1.657187
5965,69182.4,93.1676,94.5924,1.579727
5977,69321.6,93.1708,94.5374,1.478137
5989,69460.8,93.1787,94.4841,1.390553
6001,69600,93.1879,94.4347,1.298597
6013,69739.2,93.1959,94.3873,1.232344
6025,69878.4,93.1986,94.3428,1.129576
6037,70017.6,93.1998,94.2996,1.026712
6049,70156.8,93.2022,94.2594,0.930114
6061,70296,93.2097,94.2203,0.854678
6073,70435.2,93.2248,94.1835,0.78484
6085,70574.4,93.2471,94.1498,0.716706
6097,70713.6,93.2765,94.1179,0.629737
6109,70852.8,93.31037,94.0895,0.538446
6121,70992,93.3467,94.0634,0.443198
6133,71131.2,93.385,94.04093,0.339382
6145,71270.4,93.424,94.0201,0.24758
6157,71409.6,93.4654,94.0021,0.148289
6169,71548.8,93.5068,93.9865,0.062091
6181,71688,93.5491,93.9745,-0.019871
6193,71827.2,93.59133,93.96427,-0.10469
6205,71966.4,93.6332,93.9563,-0.19094
6217,72105.6,93.6739,93.9501,-0.277553
6229,72244.8,93.7141,93.9461,-0.365233
6241,72384,93.754,93.9444,-0.445101
6253,72523.2,93.7942,93.9441,-0.515382
6265,72662.4,93.8341,93.9456,-0.578909
6277,72801.6,93.87406,93.9493,-0.632129
6289,72940.8,93.9137,93.95452,-0.693498
6301,73080,93.9543,93.9606,-0.739241
6313,73219.2,93.9949,93.9685,-0.81158
6325,73358.4,94.0354,93.9785,-0.869344
6337,73497.6,94.0757,93.9889,-0.928868
6349,73636.8,94.1174,94.0012,-0.985524
6361,73776,94.1591,94.014,-1.027976
6373,73915.2,94.2017,94.0291,-1.071103
6385,74054.4,94.2462,94.0454,-1.109597
6397,74193.6,94.2913,94.0625,-1.145943
6409,74332.8,94.336,94.0803,-1.191488
6421,74472,94.3816,94.1,-1.232033
6433,74611.2,94.4263,94.12081,-1.271489
6445,74750.4,94.4708,94.143,-1.329337
6457,74889.6,94.5146,94.1652,-1.372991
6469,75028.8,94.5579,94.1889,-1.381903
6481,75168,94.5991,94.2131,-1.409923
6493,75307.2,94.63642,94.2379,-1.436507
6505,75446.4,94.6699,94.2629,-1.461662
6517,75585.6,94.7,94.28942,-1.486784
6529,75724.8,94.7279,94.3151,-1.509429
6541,75864,94.7545,94.3411,-1.523572
6553,76003.2,94.7807,94.36727,-1.543009
6565,76142.4,94.809,94.3937,-1.572685
6577,76281.6,94.8423,94.4211,-1.592791
6589,76420.8,94.8813,94.4468,-1.487834
6601,76560,94.9223,94.4738,-1.445434
6613,76699.2,94.957,94.50083,-1.475097
6625,76838.4,94.9819,94.5285,-1.539336
6637,76977.6,94.9997,94.5555,-1.580256
6649,77116.8,95.0113,94.582,-1.585875
6661,77256,95.0207,94.6083,-1.573854
6673,77395.2,95.0327,94.6331,-1.573148
6685,77534.4,95.0497,94.6587,-1.59923
6697,77673.6,95.075,94.6831,-1.476889
6709,77812.8,95.1121,94.7079,-1.447302
6721,77952,95.156,94.733,-1.474459
6733,78091.2,95.20571,94.7591,-1.503707
6745,78230.4,95.2624,94.7867,-1.558279
6757,78369.6,95.325,94.8151,-1.598727
6769,78508.8,95.3869,94.8458,-1.63384
6781,78648,95.44245,94.8774,-1.678069
6793,78787.2,95.4889,94.91062,-1.731397
6805,78926.4,95.5269,94.9425,-1.765721
6817,79065.6,95.5609,94.9758,-1.788749
6829,79204.8,95.596,95.0093,-1.816331
6841,79344,95.6397,95.04267,-1.830543
6853,79483.2,95.6967,95.0768,-1.835601
6865,79622.4,95.76171,95.1131,-1.849399
6877,79761.6,95.8298,95.1508,-1.878262
6889,79900.8,95.8995,95.1879,-1.920452
6901,80040,95.9737,95.2286,-1.967463
6913,80179.2,96.0501,95.2696,-2.005313
6925,80318.4,96.1223,95.31275,-2.063782
6937,80457.6,96.19071,95.3573,-2.11482
6949,80596.8,96.25704,95.4025,-2.180514
6961,80736,96.3268,95.44863,-2.22233
6973,80875.2,96.3941,95.49581,-2.25044
6985,81014.4,96.4577,95.5437,-2.275712
6997,81153.6,96.52,95.5928,-2.312479
7009,81292.8,96.5845,95.6426,-2.349199
7021,81432,96.6516,95.6924,-2.377151
7033,81571.2,96.7177,95.74317,-2.405407
7045,81710.4,96.7819,95.7949,-2.420702
7057,81849.6,96.8472,95.8472,-2.441205
7069,81988.8,96.9153,95.8999,-2.472839
7081,82128,96.9821,95.9526,-2.491198
7093,82267.2,97.0438,96.007,-2.507761
7105,82406.4,97.1014,96.0604,-2.532685
7117,82545.6,97.1593,96.1142,-2.558626
7129,82684.8,97.2196,96.1693,-2.562939
7141,82824,97.28031,96.2244,-2.566554
7153,82963.2,97.338,96.2789,-2.571223
7165,83102.4,97.3945,96.3339,-2.584215
7177,83241.6,97.4539,96.3894,-2.595792
7189,83380.8,97.5154,96.44425,-2.600779
7201,83520,97.5756,96.49993,-2.616843
7213,83659.2,97.6319,96.5552,-2.604471
7225,83798.4,97.6885,96.6117,-2.620153
7237,83937.6,97.748,96.6671,-2.624069
7249,84076.8,97.80773,96.723,-2.622084
7261,84216,97.8638,96.7788,-2.631177
7273,84355.2,97.9173,96.835,-2.634372
7285,84494.4,97.97251,96.8907,-2.640688
7297,84633.6,98.0293,96.94686,-2.644569
7309,84772.8,98.0824,97.0031,-2.644645
7321,84912,98.133,97.0579,-2.626805
7333,85051.2,98.182,97.1135,-2.634152
7345,85190.4,98.2326,97.1685,-2.629778
7357,85329.6,98.2831,97.2232,-2.616458
7369,85468.8,98.33,97.278,-2.602457
7381,85608,98.3752,97.3323,-2.590203
7393,85747.2,98.4206,97.3854,-2.580054
7405,85886.4,98.46662,97.4393,-2.570928
7417,86025.6,98.5098,97.4922,-2.557708
7429,86164.8,98.5498,97.5447,-2.536603
7441,86304,98.5887,97.5958,-2.537879
7453,86443.2,98.6283,97.6477,-2.514757
7465,86582.4,98.6679,97.6985,-2.496826
7477,86721.6,98.7051,97.7483,-2.464867
7489,86860.8,98.74,97.79798,-2.449057
7501,87000,98.7757,97.8466,-2.425399
7513,87139.2,98.8133,97.8945,-2.404859
7525,87278.4,98.8487,97.9426,-2.384676
7537,87417.6,98.8813,97.9898,-2.372745
7549,87556.8,98.9132,98.0362,-2.341676
7561,87696,98.9466,98.0823,-2.327058
7573,87835.2,98.9838,98.1281,-2.314509
7585,87974.4,99.0237,98.1724,-2.283542
7597,88113.6,99.0622,98.2172,-2.263865
7609,88252.8,99.1015,98.262,-2.259233
7621,88392,99.1435,98.3061,-2.251546
7633,88531.2,99.1852,98.3507,-2.234979
7645,88670.4,99.2223,98.3943,-2.226634
7657,88809.6,99.2538,98.4386,-2.215555
7669,88948.8,99.2834,98.48107,-2.203494
7681,89088,99.3141,98.5231,-2.201676
7693,89227.2,99.34928,98.5649,-2.184533
7705,89366.4,99.3857,98.6075,-2.165344
7717,89505.6,99.4206,98.6481,-2.138375
7729,89644.8,99.4547,98.6894,-2.142723
7741,89784,99.4897,98.73017,-2.128366
7753,89923.2,99.5236,98.7701,-2.117095
7765,90062.4,99.55387,98.81,-2.097673
7777,90201.6,99.57923,98.8505,-2.074516
7789,90340.8,99.6014,98.8886,-2.065347
7801,90480,99.6254,98.9264,-2.062303
7813,90619.2,99.6518,98.96398,-2.03991
7825,90758.4,99.6793,99.0014,-2.018893
7837,90897.6,99.7071,99.0377,-1.980603
7849,91036.8,99.7357,99.0737,-1.984405
7861,91176,99.7648,99.1104,-1.963777
7873,91315.2,99.79447,99.14559,-1.948272
7885,91454.4,99.82,99.18093,-1.935146
7897,91593.6,99.84249,99.2158,-1.904079
7909,91732.8,99.8637,99.2503,-1.89065
7921,91872,99.88848,99.2836,-1.875893
7933,92011.2,99.9257,99.3172,-1.859108
7945,92150.4,100.249,99.3533,-1.88798
7957,92289.6,101.005,99.4079,-2.088703
7969,92428.8,101.856,99.4914,-2.552667
7981,92568,102.632,99.6068,-3.252213
7993,92707.2,103.32,99.748,-4.099962
8005,92846.4,103.945,99.9133,-4.982413
8017,92985.6,104.538,100.098,-5.830513
8029,93124.8,105.117,100.301,-6.606509
8041,93264,105.695,100.52,-7.333938
8053,93403.2,106.277,100.756,-8.014503
8065,93542.4,106.86,101.007,-8.643253
8077,93681.6,107.441,101.272,-9.242991
8089,93820.8,108.023,101.551,-9.803799
8101,93960,108.604,101.844,-10.3496
8113,94099.2,109.185,102.149,-10.8693
8125,94238.4,109.763,102.467,-11.3753
8137,94377.6,110.341,102.796,-11.8495
8149,94516.8,110.919,103.136,-12.3004
8161,94656,111.5,103.485,-12.72375
8173,94795.2,112.084,103.844,-13.1502
8185,94934.4,112.669,104.2134,-13.56384
8197,95073.6,113.256,104.592,-13.95337
8209,95212.8,113.838,104.979,-14.3303
8221,95352,114.419,105.375,-14.69683
8233,95491.2,114.999,105.78,-15.0416
8245,95630.4,115.58,106.191,-15.3935
8257,95769.6,116.162,106.609,-15.72319
8269,95908.8,116.741,107.035,-16.0322
8281,96048,117.317,107.466,-16.3341
8293,96187.2,117.892,107.903,-16.6395
8305,96326.4,118.469,108.346,-16.929
8317,96465.6,119.049,108.795,-17.1937
8329,96604.8,119.632,109.247,-17.4316
8341,96744,120.215,109.706,-17.69989
8353,96883.2,120.801,110.169,-17.9442
8365,97022.4,121.385,110.638,-18.1838
8377,97161.6,121.964,111.11,-18.4349
8389,97300.8,122.543,111.588,-18.6632
8401,97440,123.121,112.07,-18.9057
8413,97579.2,123.703,112.555,-19.1143
8425,97718.4,124.287,113.044,-19.3466
8437,97857.6,124.869,113.536,-19.5643
8449,97996.8,125.448,114.032,-19.7852
8461,98136,126.025,114.533,-20.0105
8473,98275.2,126.603,115.035,-20.2144
8485,98414.4,127.183,115.541,-20.4288
8497,98553.6,127.767,116.049,-20.6449
8509,98692.8,128.35,116.559,-20.8424
8521,98832,128.931,117.074,-21.0604
8533,98971.2,129.509,117.59,-21.2948
8545,99110.4,130.086,118.108,-21.5228
8557,99249.6,130.666,118.629,-21.771
8569,99388.8,131.249,119.153,-22.0479
8581,99528,131.832,119.6771,-22.32538
8593,99667.2,132.412,120.205,-22.6621
8605,99806.4,132.988,120.734,-23.0329
8617,99945.6,133.563,121.265,-23.4524
8629,100084.8,134.14,121.797,-23.8872
8641,100224,134.72,122.331,-24.3327
8653,100363.2,135.302,122.865,-24.7525
8665,100502.4,135.886,123.402,-25.0592
8677,100641.6,136.471,123.942,-25.2013
8689,100780.8,137.055,124.481,-25.2144
8701,100920,137.635,125.023,-25.2017
8713,101059.2,138.212,125.566,-25.2267
8725,101198.4,138.787,126.111,-25.2817
8737,101337.6,139.364,126.656,-25.35051
8749,101476.8,139.943,127.202,-25.4527
8761,101616,140.523,127.75,-25.57546
8773,101755.2,141.108,128.298,-25.6954
8785,101894.4,141.693,128.848,-25.8014
8797,102033.6,142.275,129.399,-25.9487
8809,102172.8,142.859,129.952,-26.0765
8821,102312,143.436,130.506,-26.1929
8833,102451.2,144.011,131.059,-26.31558
8845,102590.4,144.587,131.615,-26.4314
8857,102729.6,145.166,132.169,-26.5545
8869,102868.8,145.746,132.726,-26.6651
8881,103008,146.328,133.283,-26.758
8893,103147.2,146.911,133.841,-26.8687
8905,103286.4,147.493,134.4,-26.9804
8917,103425.6,148.074,134.96,-27.0947
8929,103564.8,148.651,135.52,-27.2045
8941,103704,149.231,136.082,-27.3112
8953,103843.2,149.812,136.644,-27.409
8965,103982.4,150.394,137.207,-27.5168
8977,104121.6,150.976,137.769,-27.6191
8989,104260.8,151.556,138.334,-27.7259
9001,104400,152.1313,138.9,-27.8397
9013,104539.2,152.707,139.465,-27.9297
9025,104678.4,153.287,140.031,-28.0244
9037,104817.6,153.869,140.596,-28.1265
9049,104956.8,154.45,141.162,-28.2259
9061,105096,155.033,141.73,-28.3197
9073,105235.2,155.615,142.299,-28.4163
9085,105374.4,156.195,142.868,-28.512
9097,105513.6,156.773,143.437,-28.61161
9109,105652.8,157.353,144.007,-28.7082
9121,105792,157.936,144.577,-28.8146
9133,105931.2,158.518,145.148,-28.9163
9145,106070.4,159.097,145.719,-28.998
9157,106209.6,159.674,146.292,-29.0914
9169,106348.8,160.249,146.864,-29.1739
9181,106488,160.828,147.435,-29.2441
9193,106627.2,161.409,148.009,-29.28906
9205,106766.4,161.991,148.582,-29.3195
9217,106905.6,162.573,149.155,-29.3182
9229,107044.8,163.156,149.729,-29.2656
9241,107184,163.735,150.303,-29.1672
9253,107323.2,164.314,150.878,-28.992
9265,107462.4,164.892,151.453,-28.7152
9277,107601.6,165.473,152.028,-28.3229
9289,107740.8,166.053,152.603,-27.8071
9301,107880,166.631,153.179,-27.1527
9313,108019.2,167.21,153.755,-26.3373
9325,108158.4,167.792,154.331,-25.31304
9337,108297.6,168.373,154.908,-24.0417
9349,108436.8,168.953,155.484,-22.4409
9361,108576,169.532,156.061,-20.4235
9373,108715.2,170.113,156.638,-17.9007
9385,108854.4,170.694,157.216,-14.8413
9397,108993.6,171.276,157.795,-11.2961
9409,109132.8,171.858,158.374,-7.48557
9421,109272,172.44,158.952,-3.82699
9433,109411.2,173.022,159.531,-0.910096
9445,109550.4,173.601,160.112,0.600858
9457,109689.6,174.177,160.692,0.437354
9469,109828.8,174.755,161.273,-1.228182
9481,109968,175.335,161.852,-3.936858
9493,110107.2,175.916,162.432,-7.185112
9505,110246.4,176.499,163.013,-10.61005
9517,110385.6,177.081,163.593,-13.9158
9529,110524.8,177.661,164.174,-16.9159
9541,110664,178.242,164.755,-19.5707
9553,110803.2,178.82,165.337,-21.8386
9565,110942.4,179.398,165.917,-23.7229
9577,111081.6,179.975,166.498,-25.2899
9589,111220.8,180.552,167.081,-26.5682
9601,111360,181.133,167.661,-27.6068
9613,111499.2,181.714,168.242,-28.4393
9625,111638.4,182.295,168.823,-29.1363
9637,111777.6,182.874,169.404,-29.7923
9649,111916.8,183.454,169.986,-30.6149
9661,112056,184.036,170.567,-32.4839
9673,112195.2,184.618,171.149,-39.742
9685,112334.4,185.199,171.73,-57.5549
9697,112473.6,185.778,172.311,-86.5072
9709,112612.8,186.358,172.892,-103.852
9721,112752,186.937,173.472,-54.4725
9733,112891.2,187.517,174.055,-18.6369
9745,113030.4,188.096,174.639,-3.467335
9757,113169.6,188.674,175.222,-0.742668
9769,113308.8,189.254,175.806,-5.179788
9781,113448,189.835,176.389,-14.33526
9793,113587.2,190.417,176.971,-45.9871
9805,113726.4,191,177.552,-89.5778
9817,113865.6,191.582,178.133,-115.499
9829,114004.8,192.162,178.713,-142.188
9841,114144,192.738,179.296,-101.159
9853,114283.2,193.317,179.878,-72.0969
9865,114422.4,193.896,180.461,-56.2768
9877,114561.6,194.476,181.044,-47.3659
9889,114700.8,195.058,181.628,-42.3128
9901,114840,195.64,182.212,-39.4535
9913,114979.2,196.219,182.797,-37.8405
9925,115118.4,196.799,183.381,-36.9618
9937,115257.6,197.378,183.965,-36.5013
9949,115396.8,197.957,184.55,-36.3189
9961,115536,198.535,185.134,-36.2848
9973,115675.2,199.114,185.719,-36.2699
9985,115814.4,199.694,186.303,-36.2947
9997,115953.6,200.276,186.889,-36.39834
10009,116092.8,200.856,187.474,-36.5339
10021,116232,201.435,188.059,-36.6289
10033,116371.2,202.015,188.645,-36.7196
10045,116510.4,202.595,189.23,-36.8535
10057,116649.6,203.177,189.817,-36.87729
10069,116788.8,203.762,190.402,-36.9829
10081,116928,204.341,190.989,-37.1683
10093,117067.2,204.917,191.5763,-37.3151
10105,117206.4,205.493,192.163,-37.4943
10117,117345.6,206.073,192.75,-37.6014
10129,117484.8,206.655,193.337,-37.7026
10141,117624,207.236,193.924,-37.8546
10153,117763.2,207.814,194.511,-38.022
10165,117902.4,208.395,195.098,-38.1474
10177,118041.6,208.977,195.686,-38.25278
10189,118180.8,209.558,196.274,-38.4247
10201,118320,210.138,196.862,-38.55723
10213,118459.2,210.716,197.45,-38.6881
10225,118598.4,211.295,198.039,-38.8301
10237,118737.6,211.876,198.627,-38.8977
10249,118876.8,212.455,199.215,-39.0013
10261,119016,213.036,199.803,-39.12849
10273,119155.2,213.617,200.391,-39.2707
10285,119294.4,214.203,200.981,-39.254
10297,119433.6,214.786,201.569,-39.4407
10309,119572.8,215.365,202.159,-39.6703
10321,119712,215.942,202.749,-39.9067
10333,119851.2,216.52,203.338,-40.1291
10345,119990.4,217.098,203.929,-40.3141
10357,120129.6,217.679,204.52,-40.4744
10369,120268.8,218.258,205.109,-40.5853
10381,120408,218.837,205.699,-40.697
10393,120547.2,219.414,206.289,-40.8945
10405,120686.4,219.993,206.8786,-41.0577
10417,120825.6,220.575,207.469,-41.2365
10429,120964.8,221.157,208.059,-41.41816
10441,121104,221.736,208.649,-41.5429
10453,121243.2,222.314,209.239,-41.7505
10465,121382.4,222.892,209.829,-41.92293
10477,121521.6,223.472,210.419,-42.1294
10489,121660.8,224.053,211.008,-42.3109
10501,121800,224.635,211.598,-42.45806
10513,121939.2,225.215,212.188,-42.6372
10525,122078.4,225.796,212.778,-42.7949
10537,122217.6,226.37,213.368,-43.0361
10549,122356.8,226.947,213.957,-43.1999
10561,122496,227.528,214.546,-43.3695
10573,122635.2,228.11,215.135,-43.5722
10585,122774.4,228.695,215.724,-43.7927
10597,122913.6,229.277,216.314,-43.90712
10609,123052.8,229.857,216.903,-44.1373
10621,123192,230.436,217.493,-44.3333
10633,123331.2,231.015,218.083,-44.619
10645,123470.4,231.594,218.673,-44.8707
10657,123609.6,232.171,219.261,-45.1088
10669,123748.8,232.747,219.851,-45.3179
10681,123888,233.329,220.44,-45.4442
10693,124027.2,233.913,221.028,-45.7306
10705,124166.4,234.494,221.617,-45.9555
10717,124305.6,235.072,222.206,-46.2309
10729,124444.8,235.648,222.795,-46.4921
10741,124584,236.228,223.383,-46.6992
10753,124723.2,236.809,223.971,-47.0351
10765,124862.4,237.393,224.56,-47.264
10777,125001.6,237.97,225.148,-47.6079
10789,125140.8,238.541,225.736,-47.9028
10801,125280,239.113,226.323,-48.2006
10813,125419.2,239.691,226.908,-48.4913
10825,125558.4,240.275,227.493,-48.7392
10837,125697.6,240.864,228.078,-48.9572
10849,125836.8,241.452,228.664,-49.32724
10861,125976,242.036,229.25,-49.6475
10873,126115.2,242.617,229.838,-49.9738
10885,126254.4,243.2001,230.424,-50.3971
10897,126393.6,243.782,231.012,-50.8275
10909,126532.8,244.362,231.6,-51.2437
10921,126672,244.941,232.189,-51.60307
10933,126811.2,245.52,232.778,-52.0735
10945,126950.4,246.102,233.366,-52.601
10957,127089.6,246.674,233.954,-53.1228
10969,127228.8,247.245,234.542,-53.5947
10981,127368,247.82,235.129,-54.0785
10993,127507.2,248.401,235.717,-54.5751
11005,127646.4,248.987,236.304,-55.0198
11017,127785.6,249.574,236.891,-55.5448
11029,127924.8,250.157,237.479,-56.1739
11041,128064,250.731,238.067,-56.8143
11053,128203.2,251.306,238.654,-57.3928
11065,128342.4,251.887,239.241,-58.0145
11077,128481.6,252.471,239.828,-58.621
11089,128620.8,253.056,240.414,-59.3406
11101,128760,253.64,241.002,-60.0511
11113,128899.2,254.22,241.59,-60.8572
11125,129038.4,254.801,242.179,-61.6258
11137,129177.6,255.383,242.768,-62.5235
11149,129316.8,255.965,243.357,-63.3728
11161,129456,256.539,243.947,-64.2004
11173,129595.2,257.106,244.535,-65.1811
11185,129734.4,257.675,245.122,-66.1856
11197,129873.6,258.251,245.708,-67.2352
11209,130012.8,258.836,246.293,-68.373
11221,130152,259.425,246.878,-69.5532
11233,130291.2,260.013,247.464,-70.7909
11245,130430.4,260.598,248.05,-71.9678
11257,130569.6,261.18,248.638,-73.2308
11269,130708.8,261.763,249.225,-74.681
11281,130848,262.344,249.813,-76.3244
11293,130987.2,262.912,250.401,-78.0685
11305,131126.4,263.476,250.987,-79.9656
11317,131265.6,264.05,251.572,-81.8612
11329,131404.8,264.633,252.157,-83.8533
11341,131544,265.221,252.741,-85.9098
11353,131683.2,265.81,253.326,-88.1101
11365,131822.4,266.392,253.911,-90.533
11377,131961.6,266.966,254.496,-93.0624
11389,132100.8,267.539,255.08,-95.7383
11401,132240,268.118,255.663,-98.7174
11413,132379.2,268.703,256.246,-101.86
11425,132518.4,269.291,256.831,-105.22
11437,132657.6,269.877,257.414,-108.905
11449,132796.8,270.454,257.999,-112.872
11461,132936,271.021,258.584,-117.186
11473,133075.2,271.591,259.167,-121.82
11485,133214.4,272.172,259.748,-126.776
11497,133353.6,272.76,260.329,-132.143
11509,133492.8,273.35,260.912,-137.917
11521,133632,273.937,261.495,-144.282
11533,133771.2,274.513,262.079,-151.215
11545,133910.4,275.086,262.662,-158.727
11557,134049.6,275.669,263.244,-166.75
11569,134188.8,276.254,263.826,-175.398
11581,134328,276.842,264.41,-184.813
11593,134467.2,277.433,264.994,-195.101
11605,134606.4,278.018,265.58,-206.34
11617,134745.6,278.599,266.167,-218.508
11629,134884.8,279.177,266.755,-231.728
11641,135024,279.753,267.343,-245.988
11653,135163.2,280.331,267.931,-261.195
11665,135302.4,280.91,268.52,-277.241
11677,135441.6,281.487,269.107,-293.573
11689,135580.8,282.063,269.695,-308.694
11701,135720,282.643,270.282,-320.416
11713,135859.2,283.222,270.869,-330.572
11725,135998.4,283.8,271.457,-336.658
11737,136137.6,284.381,272.043,-340.724
11749,136276.8,284.962,272.631,-334.954
11761,136416,285.541,273.218,-329.655
11773,136555.2,286.122,273.807,-330.366
11785,136694.4,286.703,274.396,-335.978
11797,136833.6,287.284,274.985,-346.931
11809,136972.8,287.863,275.572,-361.501
11821,137112,288.444,276.161,-381.964
11833,137251.2,289.027,276.749,-408.073
11845,137390.4,289.607,277.336,-518.541
11857,137529.6,290.188,277.923,-519.646
11869,137668.8,290.759,278.51,-493.594
11881,137808,291.326,279.097,-438.498
11893,137947.2,291.903,279.685,-315.855
11905,138086.4,292.487,280.276,-235.623
11917,138225.6,293.073,280.868,-183.372
11929,138364.8,293.654,281.461,-149.458
11941,138504,294.226,282.053,-127.506
11953,138643.2,294.803,282.644,-113.305
11965,138782.4,295.387,283.235,-104.095
11977,138921.6,295.971,283.827,-98.062
11989,139060.8,296.556,284.418,-94.1676
12001,139200,297.134,285.01,-91.6467
12013,139339.2,297.705,285.6,-90.0072
12025,139478.4,298.278,286.189,-88.9147
12037,139617.6,298.857,286.778,-88.1781
12049,139756.8,299.29,287.364,-87.6144
12061,139896,299.282,287.931,-87.0298
12073,140035.2,299.255,288.471,-86.1555
12085,140174.4,299.228,288.98,-84.6636
12097,140313.6,299.197,289.46,-82.4898
12109,140452.8,299.172,289.9135,-79.7288
12121,140592,299.162,290.339,-76.5885
12133,140731.2,299.165,290.742,-73.1198
12145,140870.4,299.169,291.123,-69.5761
12157,141009.6,299.175,291.483,-66.0152
12169,141148.8,299.183,291.824,-62.5806
12181,141288,299.187,292.147,-59.2487
12193,141427.2,299.187,292.453,-56.1167
12205,141566.4,299.188,292.743,-53.135
12217,141705.6,299.186,293.018,-50.2854
12229,141844.8,299.18,293.279,-47.5626
12241,141984,299.177,293.523,-45.0106
12253,142123.2,299.179,293.755,-42.5732
12265,142262.4,299.179,293.973,-40.2335
12277,142401.6,299.177,294.18,-38.003
12289,142540.8,299.166,294.375,-35.9106
12301,142680,299.15,294.558,-33.9202
12313,142819.2,299.139,294.731,-32.0089
12325,142958.4,299.14,294.892,-30.1406
12337,143097.6,299.149,295.046,-28.3484
12349,143236.8,299.155,295.192,-26.65361
12361,143376,299.165,295.331,-25.1047
12373,143515.2,299.169,295.464,-23.6392
12385,143654.4,299.16,295.588,-22.3814
12397,143793.6,299.152,295.707,-21.20546
12409,143932.8,299.152,295.817,-20.0248
12421,144072,299.154,295.922,-18.8775
12433,144211.2,299.16,296.021,-17.8037
12445,144350.4,299.164,296.117,-16.7955
12457,144489.6,299.16,296.207,-15.8587
12469,144628.8,299.148,296.291,-14.9742
12481,144768,299.14,296.369,-14.1211
12493,144907.2,299.14,296.442,-13.2624
12505,145046.4,299.148,296.5113,-12.421
12517,145185.6,299.158,296.577,-11.603
12529,145324.8,299.166,296.641,-10.86906
12541,145464,299.171,296.701,-10.2191
12553,145603.2,299.168,296.759,-9.653468
12565,145742.4,299.163,296.814,-9.178825
12577,145881.6,299.163,296.866,-8.693263
12589,146020.8,299.166,296.915,-8.184058
12601,146160,299.168,296.962,-7.75362
12613,146299.2,299.172,297.007,-7.301751
12625,146438.4,299.171,297.051,-6.84152
12637,146577.6,299.168,297.092,-6.449718
12649,146716.8,299.156,297.131,-6.159834
12661,146856,299.144,297.166,-5.868961
12673,146995.2,299.142,297.199,-5.51216
12685,147134.4,299.146,297.23,-5.125502
12697,147273.6,299.153,297.259,-4.729431
12709,147412.8,299.159,297.288,-4.406901
12721,147552,299.163,297.315,-4.155843
12733,147691.2,299.161,297.341,-3.901885
12745,147830.4,299.158,297.366,-3.607755
12757,147969.6,299.159,297.389,-3.388184
12769,148108.8,299.163,297.412,-3.205546
12781,148248,299.163,297.434,-3.015878
12793,148387.2,299.167,297.455,-2.844424
12805,148526.4,299.165,297.476,-2.670747
12817,148665.6,299.161,297.496,-2.547224
12829,148804.8,299.16,297.513,-2.338019
12841,148944,299.161,297.532,-2.203176
12853,149083.2,299.166,297.548,-2.06817
12865,149222.4,299.17,297.566,-1.98863
12877,149361.6,299.17,297.583,-1.890721
12889,149500.8,299.169,297.599,-1.785432
12901,149640,299.169,297.616,-1.702641
12913,149779.2,299.167,297.631,-1.650417
12925,149918.4,299.161,297.647,-1.603517
12937,150057.6,299.157,297.66,-1.532413
12949,150196.8,299.158,297.673,-1.459766
12961,150336,299.162,297.686,-1.395361
12973,150475.2,299.166,297.698,-1.252496
12985,150614.4,299.17,297.712,-1.214021
12997,150753.6,299.171,297.724,-1.122325
13009,150892.8,299.169,297.737,-1.0581
13021,151032,299.165,297.75,-1.026154
13033,151171.2,299.16,297.761,-0.975839
13045,151310.4,299.159,297.772,-0.92278
13057,151449.6,299.161,297.783,-0.872812
13069,151588.8,299.165,297.792,-0.807395
13081,151728,299.171,297.803,-0.728416
13093,151867.2,299.173,297.815,-0.658708
13105,152006.4,299.173,297.825,-0.661792
13117,152145.6,299.173,297.836,-0.643073
13129,152284.8,299.172,297.848,-0.68066
13141,152424,299.17,297.859,-0.714128
13153,152563.2,299.17,297.87,-0.678414
13165,152702.4,299.166,297.879,-0.650084
13177,152841.6,299.159,297.889,-0.650936
13189,152980.8,299.155,297.898,-0.646639
13201,153120,299.154,297.906,-0.578657
13213,153259.2,299.158,297.914,-0.475316
13225,153398.4,299.157,297.922,-0.452654
13237,153537.6,299.162,297.929,-0.340389
13249,153676.8,299.161,297.937,-0.320131
13261,153816,299.158,297.944,-0.293866
13273,153955.2,299.157,297.951,-0.252668
13285,154094.4,299.157,297.958,-0.178686
13297,154233.6,299.158,297.964,-0.112772
13309,154372.8,299.159,297.971,-0.041024
13321,154512,299.153,297.977,-0.005493
13333,154651.2,299.149,297.982,0.003261
13345,154790.4,299.148,297.987,0.087882
13357,154929.6,299.148,297.992,0.106762
13369,155068.8,299.152,297.995,0.129762
13381,155208,299.152,298,0.183313
13393,155347.2,299.148,298.004,0.228969
13405,155486.4,299.146,298.007,0.279602
13417,155625.6,299.147,298.01,0.333839
13429,155764.8,299.15,298.013,0.356495
13441,155904,299.155,298.016,0.405411
13453,156043.2,299.154,298.02,0.450207
13465,156182.4,299.153,298.022,0.479556
13477,156321.6,299.153,298.026,0.497405
13489,156460.8,299.154,298.028,0.515597
13501,156600,299.156,298.031,0.490193
13513,156739.2,299.158,298.035,0.490878
13525,156878.4,299.156,298.037,0.508555
13537,157017.6,299.154,298.04,0.502547
13549,157156.8,299.154,298.042,0.516105
13561,157296,299.154,298.045,0.582525
13573,157435.2,299.157,298.048,0.556264
13585,157574.4,299.158,298.052,0.548538
13597,157713.6,299.155,298.054,0.567245
13609,157852.8,299.152,298.057,0.552827
13621,157992,299.152,298.059,0.559862
13633,158131.2,299.153,298.062,0.619245
13645,158270.4,299.156,298.064,0.649622
13657,158409.6,299.156,298.066,0.698364
13669,158548.8,299.153,298.069,0.633829
13681,158688,299.152,298.071,0.599845
13693,158827.2,299.152,298.072,0.683771
13705,158966.4,299.155,298.075,0.643608
13717,159105.6,299.156,298.077,0.651845
13729,159244.8,299.157,298.08,0.670207
13741,159384,299.1567,298.083,0.715172
13753,159523.2,299.156,298.085,0.700239
13765,159662.4,299.156,298.087,0.64772
13777,159801.6,299.158,298.089,0.605327
13789,159940.8,299.1589,298.092,0.623346
13801,160080,299.1567,298.095,0.656467
13813,160219.2,299.156,298.097,0.638102
13825,160358.4,299.156,298.101,0.638787
13837,160497.6,299.154,298.103,0.625055
13849,160636.8,299.154,298.105,0.639642
13861,160776,299.153,298.106,0.672421
13873,160915.2,299.15,298.109,0.765954
13885,161054.4,299.148,298.111,0.702624
13897,161193.6,299.146,298.111,0.869956
13909,161332.8,299.137,298.112,0.890894
13921,161472,299.129,298.11,1.031454
13933,161611.2,299.121,298.108,1.125678
13945,161750.4,299.119,298.103,2.382143
13957,161889.6,299.117,298.099,2.396399
13969,162028.8,299.116,298.092,2.482743
13981,162168,299.114,298.085,3.141293
13993,162307.2,299.115,298.075,3.652263
14005,162446.4,299.118,298.065,4.810118
14017,162585.6,299.124,298.055,5.22088
14029,162724.8,299.131,298.045,5.827486
14041,162864,299.142,298.036,6.477179
14053,163003.2,299.151,298.027,6.304056
14065,163142.4,299.158,298.02,6.355418
14077,163281.6,299.158,298.015,6.365402
14089,163420.8,299.165,298.01,6.517508
14101,163560,299.179,298.005,6.590657
14113,163699.2,299.189,298.005,6.166194
14125,163838.4,299.191,298.006,6.26625
14137,163977.6,299.189,298.008,6.102492
14149,164116.8,299.184,298.012,6.061104
14161,164256,299.18,298.017,5.180225
14173,164395.2,299.176,298.021,4.705971
14185,164534.4,299.172,298.025,4.094237
14197,164673.6,299.171,298.03,3.57347
14209,164812.8,299.171,298.036,3.130973
14221,164952,299.169,298.041,3.893701
14233,165091.2,299.167,298.048,3.520203
14245,165230.4,299.167,298.054,2.729127
14257,165369.6,299.166,298.06,2.661145
14269,165508.8,299.163,298.066,1.915739
14281,165648,299.162,298.072,1.772589
14293,165787.2,299.162,298.078,2.340153
14305,165926.4,299.161,298.084,2.002206
14317,166065.6,299.158,298.089,1.827994
14329,166204.8,299.158,298.095,1.193484
14341,166344,299.158,298.101,1.000228
14353,166483.2,299.157,298.106,1.113151
14365,166622.4,299.157,298.111,1.098043
14377,166761.6,299.158,298.116,1.107133
14389,166900.8,299.157,298.121,0.962623
14401,167040,299.156,298.127,0.692831
14413,167179.2,299.155,298.132,0.751006
14425,167318.4,299.155,298.136,0.642712
14437,167457.6,299.154,298.141,0.72028
14449,167596.8,299.153,298.144,1.019063
14461,167736,299.153,298.149,1.209896
14473,167875.2,299.154,298.153,1.213495
14485,168014.4,299.153,298.157,1.04016
14497,168153.6,299.153,298.16,1.375662
14509,168292.8,299.153,298.163,1.179504
14521,168432,299.152,298.167,0.987464
14533,168571.2,299.151,298.1698,1.352997
14545,168710.4,299.152,298.173,1.266328
14557,168849.6,299.153,298.176,1.079095
14569,168988.8,299.151,298.179,1.263746
14581,169128,299.152,298.181,1.531113
14593,169267.2,299.153,298.183,1.42454
14605,169406.4,299.152,298.187,1.323629
14617,169545.6,299.15,298.1887,1.213968
14629,169684.8,299.151,298.191,1.540709
14641,169824,299.147,298.192,1.351423
14653,169963.2,299.148,298.194,1.585151
14665,170102.4,299.15,298.196,1.606428
14677,170241.6,299.15,298.197,1.45318
14689,170380.8,299.151,298.198,1.353473
14701,170520,299.152,298.2,1.536919
14713,170659.2,299.153,298.202,1.427431
14725,170798.4,299.151,298.204,1.377834
14737,170937.6,299.151,298.205,1.331842
14749,171076.8,299.151,298.208,1.310216
14761,171216,299.149,298.208,1.314334
14773,171355.2,299.15,298.209,1.757077
14785,171494.4,299.151,298.211,1.640554
14797,171633.6,299.152,298.2111,1.528666
14809,171772.8,299.15,298.212,1.520599
14821,171912,299.15,298.213,1.471004
14833,172051.2,299.149,298.214,1.479412
14845,172190.4,299.15,298.214,1.462594
14857,172329.6,299.15,298.215,1.495712
14869,172468.8,299.151,298.216,1.549595
14881,172608,299.152,298.218,1.613258
14893,172747.2,299.152,298.219,1.479748
14897,172793.6,299.153,298.219,1.48438