File: z_unorganized_archive/i_data/0.25Kmin/H2O-NH3_4wt%.csv
H2O-NH3 3.2wt%  Specific Heat - Large HF,,,,
Creation Date : 8/3/2022 1:07:56 PM,,,,
User : admin,,,,
,,,,
HeatFlow :,,,,
 Initial Mass : 4764.8 mg,,,,
 Molar Mass : 17 g/mol,,,,
,,,,
Index,Time(s),Furnace Temperature(K),Sample Temperature(K),HeatFlow(mW)
1,0,298.897,298.882,187.635
13,139.2,298.889,298.887,119.002
25,278.4,298.886,298.89,75.5245
37,417.6,298.881,298.893,47.8602
49,556.8,298.876,298.893,30.2256
61,696,298.865,298.895,18.98431
73,835.2,298.844,298.894,11.8293
85,974.4,298.809,298.893,7.303164
97,1113.6,298.752,298.888,4.474423
109,1252.8,298.668,298.879,2.76912
121,1392,298.549,298.866,1.830212
133,1531.2,298.394,298.845,1.441286
145,1670.4,298.195,298.816,1.487291
157,1809.6,297.949,298.776,1.895204
169,1948.8,297.646,298.722,2.635413
181,2088,297.273,298.653,3.703549
193,2227.2,296.815,298.565,5.106091
205,2366.4,296.265,298.452,6.875152
217,2505.6,295.618,298.312,9.081869
229,2644.8,294.876,298.14,11.7756
241,2784,294.048,297.933,14.9983
253,2923.2,293.15,297.689,18.7492
265,3062.4,292.201,297.407,23.0083
277,3201.6,291.213,297.084,27.6904
289,3340.8,290.194,296.723,32.6982
301,3480,289.15,296.324,37.9497
313,3619.2,288.092,295.887,43.3499
325,3758.4,287.024,295.415,48.8228
337,3897.6,285.954,294.91,54.2842
349,4036.8,284.89,294.374,59.6685
361,4176,283.829,293.809,64.8888
373,4315.2,282.78,293.22,69.8771
385,4454.4,281.738,292.607,74.5062
397,4593.6,280.704,291.975,78.775
409,4732.8,279.682,291.319,82.8035
421,4872,278.67,290.639,86.6901
433,5011.2,277.667,289.941,90.3863
445,5150.4,276.675,289.226,93.8755
457,5289.6,275.693,288.496,97.1171
469,5428.8,274.724,287.753,100.095
481,5568,273.765,286.998,102.818
493,5707.2,272.819,286.232,105.294
505,5846.4,271.886,285.458,107.53
517,5985.6,270.961,284.676,109.509
529,6124.8,270.044,283.888,111.2705
541,6264,269.139,283.093,112.831
553,6403.2,268.241,282.293,114.213
565,6542.4,267.347,281.49,115.412
577,6681.6,266.463,280.683,116.486
589,6820.8,265.585,279.872,117.438
601,6960,264.714,279.06,118.224
613,7099.2,263.848,278.246,118.945
625,7238.4,262.99,277.429,119.546
637,7377.6,262.139,276.613,120.067
649,7516.8,261.296,275.796,120.488
661,7656,260.461,274.979,120.947
673,7795.2,259.636,274.162,121.238
685,7934.4,258.82,273.346,121.373
697,8073.6,258.009,272.533,121.569
709,8212.8,257.204,271.72,121.592
721,8352,256.405,270.909,121.597
733,8491.2,255.611,270.101,121.536
745,8630.4,254.823,269.294,121.457
757,8769.6,254.04,268.49,121.491
769,8908.8,253.265,267.689,121.375
781,9048,252.496,266.89,121.206
793,9187.2,251.73,266.094,120.976
805,9326.4,250.968,265.302,120.747
817,9465.6,250.209,264.513,120.573
829,9604.8,249.456,263.726,120.17
841,9744,248.709,262.942,119.9
853,9883.2,247.967,262.163,119.664
865,10022.4,247.229,261.3856,119.43
877,10161.6,246.495,260.612,119.118
889,10300.8,245.767,259.842,118.822
901,10440,245.043,259.076,118.395
913,10579.2,244.321,258.312,118.046
925,10718.4,243.606,257.553,117.526
937,10857.6,242.896,256.798,117.169
949,10996.8,242.188,256.068,1356.25
961,11136,241.487,255.354,1413.04
973,11275.2,240.794,254.636,1321.47
985,11414.4,240.107,253.916,1144.18
997,11553.6,239.427,253.195,921.751
1009,11692.8,238.751,252.472,708.55
1021,11832,238.082,251.747,534.669
1033,11971.2,237.418,251.024,404.533
1045,12110.4,236.754,250.303,311.172
1057,12249.6,236.094,249.584,245.768
1069,12388.8,235.436,248.868,200.323
1081,12528,234.782,248.155,168.823
1093,12667.2,234.13,247.446,146.718
1105,12806.4,233.48,246.741,130.97
1117,12945.6,232.832,246.04,119.621
1129,13084.8,232.188,245.342,111.096
1141,13224,231.547,244.648,104.345
1153,13363.2,230.91,243.957,98.931
1165,13502.4,230.276,243.271,94.7343
1177,13641.6,229.646,242.588,91.29445
1189,13780.8,229.0199,241.909,88.2147
1201,13920,228.396,241.234,85.3902
1213,14059.2,227.772,240.561,82.7666
1225,14198.4,227.149,239.894,80.8665
1237,14337.6,226.528,239.227,78.9175
1249,14476.8,225.911,238.566,77.2554
1261,14616,225.296,237.907,75.2667
1273,14755.2,224.683,237.251,73.5915
1285,14894.4,224.074,236.599,71.8377
1297,15033.6,223.468,235.95,70.3906
1309,15172.8,222.866,235.303,68.964
1321,15312,222.265,234.66,67.7356
1333,15451.2,221.668,234.02,66.50704
1345,15590.4,221.073,233.384,65.4399
1357,15729.6,220.484,232.751,64.2482
1369,15868.8,219.897,232.119,63.0805
1381,16008,219.313,231.493,62.14743
1393,16147.2,218.731,230.868,61.437
1405,16286.4,218.153,230.247,60.4892
1417,16425.6,217.58,229.628,59.9967
1429,16564.8,217.011,229.013,59.2836
1441,16704,216.444,228.401,58.1518
1453,16843.2,215.882,227.792,57.2509
1465,16982.4,215.326,227.187,56.3539
1477,17121.6,214.77,226.585,55.6261
1489,17260.8,214.214,225.985,54.8283
1501,17400,213.659,225.389,54.0955
1513,17539.2,213.109,224.795,53.1066
1525,17678.4,212.563,224.205,52.4178
1537,17817.6,212.025,223.618,52.0979
1549,17956.8,211.492,223.034,51.5104
1561,18096,210.964,222.453,50.8419
1573,18235.2,210.441,221.877,50.2975
1585,18374.4,209.922,221.303,49.4868
1597,18513.6,209.406,220.733,48.9585
1609,18652.8,208.894,220.166,48.452
1621,18792,208.386,219.603,48.1735
1633,18931.2,207.881,219.0427,47.4492
1645,19070.4,207.378,218.487,46.4087
1657,19209.6,206.879,217.934,45.97677
1669,19348.8,206.381,217.385,45.56233
1681,19488,205.888,216.838,45.1054
1693,19627.2,205.397,216.296,44.583
1705,19766.4,204.909,215.756,44.12
1717,19905.6,204.423,215.22,43.4804
1729,20044.8,203.94,214.687,42.8561
1741,20184,203.459,214.157,42.403
1753,20323.2,202.98,213.63,42.018
1765,20462.4,202.505,213.105,41.5692
1777,20601.6,202.031,212.583,41.1392
1789,20740.8,201.558,212.065,40.5937
1801,20880,201.088,211.549,40.3063
1813,21019.2,200.619,211.037,39.7518
1825,21158.4,200.152,210.527,39.2046
1837,21297.6,199.689,210.02,38.6347
1849,21436.8,199.226,209.515,38.2743
1861,21576,198.767,209.013,37.5682
1873,21715.2,198.309,208.513,37.3693
1885,21854.4,197.853,208.0175,37.2915
1897,21993.6,197.4,207.523,36.8062
1909,22132.8,196.9494,207.031,36.0067
1921,22272,196.502,206.541,35.25453
1933,22411.2,196.056,206.054,35.0151
1945,22550.4,195.613,205.571,34.9419
1957,22689.6,195.172,205.09,34.3375
1969,22828.8,194.732,204.611,34.3394
1981,22968,194.294,204.134,33.73479
1993,23107.2,193.86,203.659,33.5202
2005,23246.4,193.427,203.188,33.0604
2017,23385.6,192.996,202.718,32.745
2029,23524.8,192.566,202.251,32.3696
2041,23664,192.139,201.786,31.8819
2053,23803.2,191.713,201.323,31.4603
2065,23942.4,191.289,200.862,31.0252
2077,24081.6,190.867,200.404,30.8611
2089,24220.8,190.447,199.948,30.65328
2101,24360,190.029,199.493,30.43219
2113,24499.2,189.614,199.043,30.2423
2125,24638.4,189.2,198.593,29.9298
2137,24777.6,188.789,198.147,29.466
2149,24916.8,188.38,197.701,29.2986
2161,25056,187.973,197.258,29.4816
2173,25195.2,187.567,196.818,29.5377
2185,25334.4,187.165,196.378,28.6632
2197,25473.6,186.764,195.942,28.5107
2209,25612.8,186.366,195.508,28.0753
2221,25752,185.969,195.076,27.6643
2233,25891.2,185.574,194.645,27.5584
2245,26030.4,185.18,194.217,27.6332
2257,26169.6,184.789,193.791,27.4831
2269,26308.8,184.398,193.367,27.2601
2281,26448,184.011,192.946,27.0647
2293,26587.2,183.625,192.525,26.8683
2305,26726.4,183.24,192.108,26.736
2317,26865.6,182.857,191.691,26.5965
2329,27004.8,182.475,191.277,25.90956
2341,27144,182.096,190.865,25.6318
2353,27283.2,181.718,190.454,25.68134
2365,27422.4,181.341,190.046,25.8538
2377,27561.6,180.968,189.64,25.3572
2389,27700.8,180.596,189.235,25.1591
2401,27840,180.227,188.832,24.9506
2413,27979.2,179.858,188.431,24.5527
2425,28118.4,179.49,188.032,24.6011
2437,28257.6,179.124,187.634,24.1022
2449,28396.8,178.759,187.239,23.6562
2461,28536,178.397,186.845,23.7607
2473,28675.2,178.037,186.454,23.6357
2485,28814.4,177.679,186.064,23.2836
2497,28953.6,177.322,185.676,23.0635
2509,29092.8,176.966,185.29,22.8404
2521,29232,176.613,184.904,22.4697
2533,29371.2,176.26,184.521,22.2296
2545,29510.4,175.909,184.141,22.5087
2557,29649.6,175.559,183.761,22.7288
2569,29788.8,175.209,183.383,22.70765
2581,29928,174.863,183.007,22.424
2593,30067.2,174.517,182.632,22.2401
2605,30206.4,174.173,182.259,22.0085
2617,30345.6,173.83,181.889,21.8514
2629,30484.8,173.489,181.518,21.5355
2641,30624,173.149,181.15,21.3172
2653,30763.2,172.811,180.783,21.4499
2665,30902.4,172.475,180.419,21.1292
2677,31041.6,172.141,180.056,20.7264
2689,31180.8,171.811,179.694,20.7588
2701,31320,171.482,179.334,20.8379
2713,31459.2,171.154,178.976,20.7089
2725,31598.4,170.829,178.62,20.3884
2737,31737.6,170.505,178.265,20.4201
2749,31876.8,170.182,177.912,20.2997
2761,32016,169.862,177.561,19.9101
2773,32155.2,169.544,177.211,19.5758
2785,32294.4,169.227,176.863,19.7209
2797,32433.6,168.911,176.517,19.7656
2809,32572.8,168.596,176.172,19.3404
2821,32712,168.283,175.829,19.2371
2833,32851.2,167.971,175.487,19.0489
2845,32990.4,167.659,175.147,19.0093
2857,33129.6,167.35,174.808,18.8527
2869,33268.8,167.042,174.473,18.8474
2881,33408,166.735,174.137,18.7995
2893,33547.2,166.429,173.803,18.6214
2905,33686.4,166.126,173.471,18.4411
2917,33825.6,165.822,173.14,18.242
2929,33964.8,165.519,172.812,17.8736
2941,34104,165.216,172.483,18.0787
2953,34243.2,164.914,172.156,17.8456
2965,34382.4,164.614,171.83,17.8307
2977,34521.6,164.315,171.507,17.9491
2989,34660.8,164.015,171.185,18.0003
3001,34800,163.718,170.863,17.9397
3013,34939.2,163.422,170.544,17.8717
3025,35078.4,163.126,170.225,17.7802
3037,35217.6,162.829,169.907,17.4305
3049,35356.8,162.533,169.59,17.3183
3061,35496,162.237,169.275,17.3186
3073,35635.2,161.941,168.961,17.2655
3085,35774.4,161.647,168.648,17.076
3097,35913.6,161.352,168.336,17.1826
3109,36052.8,161.061,168.024,16.8755
3121,36192,160.77,167.715,16.834
3133,36331.2,160.481,167.405,16.68293
3145,36470.4,160.194,167.098,16.6665
3157,36609.6,159.907,166.791,16.3994
3169,36748.8,159.623,166.485,16.4412
3181,36888,159.34,166.18,16.6967
3193,37027.2,159.057,165.877,16.7225
3205,37166.4,158.775,165.575,16.5026
3217,37305.6,158.494,165.274,16.2814
3229,37444.8,158.214,164.974,16.1307
3241,37584,157.936,164.675,16.1451
3253,37723.2,157.66,164.377,15.9178
3265,37862.4,157.386,164.081,15.6142
3277,38001.6,157.114,163.785,15.4718
3289,38140.8,156.845,163.491,15.327
3301,38280,156.577,163.198,15.2827
3313,38419.2,156.312,162.906,15.29322
3325,38558.4,156.047,162.616,15.1318
3337,38697.6,155.783,162.327,15.1653
3349,38836.8,155.52,162.039,14.9602
3361,38976,155.258,161.753,15.0875
3373,39115.2,154.997,161.468,15.1517
3385,39254.4,154.736,161.184,14.8541
3397,39393.6,154.477,160.901,15.0893
3409,39532.8,154.218,160.619,14.9438
3421,39672,153.961,160.339,14.8221
3433,39811.2,153.703,160.06,14.5077
3445,39950.4,153.446,159.7815,14.432
3457,40089.6,153.188,159.504,14.1687
3469,40228.8,152.932,159.228,14.152
3481,40368,152.674,158.953,14.0941
3493,40507.2,152.418,158.679,14.3686
3505,40646.4,152.163,158.406,14.2691
3517,40785.6,151.91,158.134,14.127
3529,40924.8,151.656,157.863,14.1126
3541,41064,151.406,157.592,14.0245
3553,41203.2,151.159,157.322,13.8826
3565,41342.4,150.915,157.054,13.598
3577,41481.6,150.674,156.787,13.4781
3589,41620.8,150.435,156.521,13.4491
3601,41760,150.199,156.257,13.3755
3613,41899.2,149.967,155.994,13.3856
3625,42038.4,149.739,155.733,13.1715
3637,42177.6,149.513,155.474,13.3196
3649,42316.8,149.289,155.216,13.0686
3661,42456,149.066,154.96,12.8474
3673,42595.2,148.843,154.704,12.73535
3685,42734.4,148.62,154.451,12.9111
3697,42873.6,148.394,154.199,12.7105
3709,43012.8,148.168,153.948,12.6082
3721,43152,147.94,153.697,12.6934
3733,43291.2,147.71,153.45,12.5172
3745,43430.4,147.478,153.202,12.5232
3757,43569.6,147.244,152.954,12.6032
3769,43708.8,147.007,152.708,12.3596
3781,43848,146.768,152.462,12.5193
3793,43987.2,146.527,152.216,12.4649
3805,44126.4,146.285,151.971,12.3783
3817,44265.6,146.039,151.726,12.1139
3829,44404.8,145.789,151.48,11.9674
3841,44544,145.537,151.235,12.14592
3853,44683.2,145.281,150.989,11.8974
3865,44822.4,145.024,150.743,11.8639
3877,44961.6,144.764,150.496,11.9739
3889,45100.8,144.502,150.249,12.1099
3901,45240,144.24,150.001,12.1053
3913,45379.2,143.977,149.753,12.2795
3925,45518.4,143.714,149.504,12.2517
3937,45657.6,143.4522,149.255,12.1617
3949,45796.8,143.19,149.006,12.449
3961,45936,142.931,148.756,12.3386
3973,46075.2,142.675,148.505,12.2203
3985,46214.4,142.419,148.254,12.2499
3997,46353.6,142.165,148.003,12.3922
4009,46492.8,141.914,147.752,12.43091
4021,46632,141.667,147.502,12.4406
4033,46771.2,141.419,147.251,12.3637
4045,46910.4,141.176,147.002,12.4237
4057,47049.6,140.937,146.752,12.26261
4069,47188.8,140.7,146.503,12.11968
4081,47328,140.462,146.255,12.1683
4093,47467.2,140.225,146.007,12.1181
4105,47606.4,139.991,145.759,11.8761
4117,47745.6,139.764,145.513,11.7226
4129,47884.8,139.545,145.268,11.85189
4141,48024,139.337,145.024,11.9371
4153,48163.2,139.138,144.781,11.8455
4165,48302.4,138.942,144.541,11.6281
4177,48441.6,138.745,144.303,11.5062
4189,48580.8,138.547,144.067,11.5134
4201,48720,138.35,143.833,11.2808
4213,48859.2,138.157,143.599,11.3734
4225,48998.4,137.969,143.369,11.3878
4237,49137.6,137.783,143.14,11.1363
4249,49276.8,137.596,142.913,10.8579
4261,49416,137.403,142.687,10.8295
4273,49555.2,137.203,142.463,10.6936
4285,49694.4,136.999,142.24,10.6542
4297,49833.6,136.791,142.017,10.6176
4309,49972.8,136.58,141.796,10.558
4321,50112,136.364,141.573,10.5346
4333,50251.2,136.147,141.352,10.3529
4345,50390.4,135.934,141.131,10.4034
4357,50529.6,135.729,140.912,10.3509
4369,50668.8,135.532,140.691,10.3637
4381,50808,135.338,140.474,10.3132
4393,50947.2,135.145,140.256,10.2805
4405,51086.4,134.946,140.041,10.2321
4417,51225.6,134.741,139.825,10.1381
4429,51364.8,134.536,139.609,10.08816
4441,51504,134.3319,139.395,10.1101
4453,51643.2,134.134,139.181,9.95338
4465,51782.4,133.944,138.968,9.964493
4477,51921.6,133.763,138.756,9.842779
4489,52060.8,133.588,138.546,9.816486
4501,52200,133.4121,138.337,9.755687
4513,52339.2,133.234,138.13,9.740586
4525,52478.4,133.057,137.923,9.588585
4537,52617.6,132.877,137.719,9.508864
4549,52756.8,132.695,137.515,9.470797
4561,52896,132.511,137.313,9.475258
4573,53035.2,132.327,137.111,9.211761
4585,53174.4,132.147,136.909,9.208854
4597,53313.6,131.972,136.709,9.113399
4609,53452.8,131.798,136.51,8.99348
4621,53592,131.623,136.312,8.839026
4633,53731.2,131.445,136.1155,8.972641
4645,53870.4,131.265,135.919,8.875571
4657,54009.6,131.082,135.725,8.748651
4669,54148.8,130.897,135.528,8.739506
4681,54288,130.708,135.334,8.71807
4693,54427.2,130.519,135.14,8.743005
4705,54566.4,130.332,134.946,8.62416
4717,54705.6,130.144,134.752,8.636778
4729,54844.8,129.957,134.56,8.669096
4741,54984,129.772,134.366,8.540216
4753,55123.2,129.591,134.174,8.50772
4765,55262.4,129.418,133.982,8.449295
4777,55401.6,129.255,133.791,8.468431
4789,55540.8,129.098,133.601,8.352285
4801,55680,128.939,133.414,8.260679
4813,55819.2,128.778,133.227,8.276279
4825,55958.4,128.614,133.041,8.184344
4837,56097.6,128.452,132.856,8.115287
4849,56236.8,128.294,132.672,8.052228
4861,56376,128.142,132.49,8.004279
4873,56515.2,127.998,132.309,7.971559
4885,56654.4,127.853,132.129,7.872672
4897,56793.6,127.707,131.951,7.803743
4909,56932.8,127.555,131.775,7.715665
4921,57072,127.403,131.599,7.643104
4933,57211.2,127.252,131.425,7.628254
4945,57350.4,127.107,131.251,7.645298
4957,57489.6,126.968,131.079,7.541407
4969,57628.8,126.83,130.909,7.482562
4981,57768,126.689,130.739,7.419755
4993,57907.2,126.542,130.571,7.407104
5005,58046.4,126.393,130.404,7.293126
5017,58185.6,126.243,130.237,7.198256
5029,58324.8,126.097,130.072,7.178171
5041,58464,125.956,129.907,7.089767
5053,58603.2,125.82,129.743,6.978482
5065,58742.4,125.681,129.581,6.930098
5077,58881.6,125.537,129.418,6.969822
5089,59020.8,125.39,129.258,6.895511
5101,59160,125.247,129.097,6.737166
5113,59299.2,125.1061,128.938,6.641882
5125,59438.4,124.967,128.779,6.65414
5137,59577.6,124.823,128.621,6.537915
5149,59716.8,124.674,128.464,6.57592
5161,59856,124.522,128.307,6.564949
5173,59995.2,124.37,128.15,6.610523
5185,60134.4,124.221,127.993,6.590161
5197,60273.6,124.078,127.837,6.493767
5209,60412.8,123.942,127.683,6.478172
5221,60552,123.811,127.527,6.43988
5233,60691.2,123.677,127.374,6.411416
5245,60830.4,123.54,127.221,6.337131
5257,60969.6,123.399,127.07,6.276537
5269,61108.8,123.261,126.918,6.256704
5281,61248,123.127,126.767,6.21652
5293,61387.2,122.998,126.618,6.212096
5305,61526.4,122.869,126.468,6.13302
5317,61665.6,122.735,126.319,6.072741
5329,61804.8,122.596,126.171,6.000855
5341,61944,122.457,126.023,5.909319
5353,62083.2,122.319,125.876,5.933332
5365,62222.4,122.187,125.73,5.88601
5377,62361.6,122.061,125.585,5.911678
5389,62500.8,121.939,125.44,5.887207
5401,62640,121.817,125.295,5.86071
5413,62779.2,121.689,125.153,5.761351
5425,62918.4,121.557,125.01,5.798738
5437,63057.6,121.424,124.868,5.735147
5449,63196.8,121.291,124.726,5.763253
5461,63336,121.164,124.585,5.666816
5473,63475.2,121.041,124.444,5.661895
5485,63614.4,120.922,124.305,5.619618
5497,63753.6,120.799,124.166,5.588869
5509,63892.8,120.669,124.027,5.593695
5521,64032,120.531,123.889,5.495462
5533,64171.2,120.386,123.75,5.501632
5545,64310.4,120.24,123.612,5.488251
5557,64449.6,120.096,123.472,5.518586
5569,64588.8,119.958,123.333,5.509764
5581,64728,119.831,123.194,5.537326
5593,64867.2,119.715,123.056,5.509411
5605,65006.4,119.607,122.919,5.403654
5617,65145.6,119.5,122.784,5.356095
5629,65284.8,119.388,122.649,5.362946
5641,65424,119.272,122.516,5.271831
5653,65563.2,119.154,122.383,5.253693
5665,65702.4,119.039,122.251,5.218071
5677,65841.6,118.928,122.12,5.12995
5689,65980.8,118.825,121.99,5.084934
5701,66120,118.729,121.86,4.999114
5713,66259.2,118.637,121.733,5.017517
5725,66398.4,118.542,121.606,4.978212
5737,66537.6,118.443,121.481,4.968115
5749,66676.8,118.336,121.357,4.878582
5761,66816,118.223,121.234,4.837839
5773,66955.2,118.102,121.111,4.792107
5785,67094.4,117.978,120.988,4.764474
5797,67233.6,117.848,120.864,4.735387
5809,67372.8,117.716,120.741,4.753017
5821,67512,117.582,120.617,4.749046
5833,67651.2,117.45,120.492,4.713541
5845,67790.4,117.323,120.368,4.737337
5857,67929.6,117.206,120.243,4.747838
5869,68068.8,117.098,120.119,4.751375
5881,68208,116.994,119.996,4.713107
5893,68347.2,116.892,119.874,4.686952
5905,68486.4,116.79,119.753,4.653179
5917,68625.6,116.689,119.632,4.632721
5929,68764.8,116.585,119.513,4.598806
5941,68904,116.473,119.393,4.57008
5953,69043.2,116.354,119.274,4.551205
5965,69182.4,116.229,119.155,4.520358
5977,69321.6,116.106,119.035,4.502314
5989,69460.8,115.986,118.916,4.469625
6001,69600,115.874,118.796,4.459996
6013,69739.2,115.772,118.677,4.473171
6025,69878.4,115.68,118.56,4.617281
6037,70017.6,115.589,118.442,4.545249
6049,70156.8,115.494,118.327,4.486832
6061,70296,115.392,118.212,4.442707
6073,70435.2,115.287,118.097,4.36794
6085,70574.4,115.185,117.983,4.309523
6097,70713.6,115.086,117.869,4.274837
6109,70852.8,114.995,117.756,4.237713
6121,70992,114.912,117.645,4.185469
6133,71131.2,114.833,117.534,4.133419
6145,71270.4,114.758,117.424,4.079506
6157,71409.6,114.679,117.317,4.036077
6169,71548.8,114.593,117.21,3.977801
6181,71688,114.497,117.104,3.961416
6193,71827.2,114.395,116.998,3.912451
6205,71966.4,114.289,116.893,3.891539
6217,72105.6,114.187,116.787,3.841556
6229,72244.8,114.089,116.682,3.830363
6241,72384,114,116.577,3.817359
6253,72523.2,113.919,116.473,3.788859
6265,72662.4,113.843,116.371,3.746913
6277,72801.6,113.766,116.27,3.735218
6289,72940.8,113.688,116.169,3.702077
6301,73080,113.608,116.069,3.645309
6313,73219.2,113.53,115.97,3.588748
6325,73358.4,113.455,115.872,3.561332
6337,73497.6,113.384,115.775,3.5261
6349,73636.8,113.314,115.6798,3.485689
6361,73776,113.239,115.586,3.440723
6373,73915.2,113.16,115.491,3.402888
6385,74054.4,113.08,115.397,3.356895
6397,74193.6,112.999,115.305,3.312022
6409,74332.8,112.923,115.212,3.298258
6421,74472,112.852,115.121,3.291047
6433,74611.2,112.786,115.03,3.247209
6445,74750.4,112.719,114.941,3.204489
6457,74889.6,112.647,114.852,3.164407
6469,75028.8,112.573,114.764,3.126061
6481,75168,112.496,114.677,3.08795
6493,75307.2,112.421,114.59,3.057915
6505,75446.4,112.349,114.504,3.036267
6517,75585.6,112.28,114.418,3.005243
6529,75724.8,112.211,114.333,2.987132
6541,75864,112.137,114.248,2.956612
6553,76003.2,112.06,114.164,2.923032
6565,76142.4,111.985,114.081,2.884881
6577,76281.6,111.909,113.996,2.865732
6589,76420.8,111.829,113.913,2.859239
6601,76560,111.745,113.831,2.850304
6613,76699.2,111.657,113.747,2.827761
6625,76838.4,111.566,113.665,2.810024
6637,76977.6,111.478,113.58,2.814121
6649,77116.8,111.394,113.496,2.840354
6661,77256,111.319,113.413,2.828061
6673,77395.2,111.251,113.33,2.803004
6685,77534.4,111.187,113.248,2.784585
6697,77673.6,111.122,113.166,2.769793
6709,77812.8,111.049,113.085,2.75069
6721,77952,110.97,113.004,2.731894
6733,78091.2,110.889,112.923,2.715504
6745,78230.4,110.807,112.842,2.697858
6757,78369.6,110.731,112.761,2.700028
6769,78508.8,110.66,112.681,2.668017
6781,78648,110.597,112.601,2.653371
6793,78787.2,110.542,112.522,2.630128
6805,78926.4,110.49,112.444,2.602259
6817,79065.6,110.44,112.367,2.573427
6829,79204.8,110.395,112.292,2.533511
6841,79344,110.353,112.218,2.484669
6853,79483.2,110.315,112.145,2.450445
6865,79622.4,110.28,112.074,2.393481
6877,79761.6,110.242,112.004,2.320808
6889,79900.8,110.196,111.936,2.288831
6901,80040,110.143,111.868,2.257124
6913,80179.2,110.085,111.801,2.242247
6925,80318.4,110.024,111.734,2.223678
6937,80457.6,109.966,111.667,2.188181
6949,80596.8,109.912,111.601,2.179703
6961,80736,109.862,111.535,2.154288
6973,80875.2,109.819,111.47,2.134068
6985,81014.4,109.781,111.406,2.108273
6997,81153.6,109.749,111.344,2.075959
7009,81292.8,109.722,111.282,2.033131
7021,81432,109.699,111.223,1.98715
7033,81571.2,109.679,111.166,1.932774
7045,81710.4,109.662,111.109,1.868773
7057,81849.6,109.647,111.055,1.797905
7069,81988.8,109.633,111.001,1.720488
7081,82128,109.62,110.951,1.641434
7093,82267.2,109.609,110.901,1.565085
7105,82406.4,109.597,110.853,1.486503
7117,82545.6,109.587,110.807,1.414334
7129,82684.8,109.577,110.763,1.348912
7141,82824,109.566,110.719,1.282818
7153,82963.2,109.556,110.677,1.227498
7165,83102.4,109.545,110.637,1.169347
7177,83241.6,109.529,110.597,1.11983
7189,83380.8,109.507,110.558,1.077089
7201,83520,109.481,110.521,1.043301
7213,83659.2,109.454,110.483,1.006396
7225,83798.4,109.423,110.446,0.984661
7237,83937.6,109.391,110.409,0.96663
7249,84076.8,109.358,110.372,0.938973
7261,84216,109.326,110.336,0.921849
7273,84355.2,109.295,110.299,0.911856
7285,84494.4,109.259,110.262,0.903718
7297,84633.6,109.215,110.226,0.912035
7309,84772.8,109.164,110.189,0.91042
7321,84912,109.109,110.152,0.912534
7333,85051.2,109.054,110.113,0.92678
7345,85190.4,108.999,110.074,0.959378
7357,85329.6,108.952,110.034,0.97272
7369,85468.8,108.915,109.995,0.985446
7381,85608,108.891,109.956,0.99351
7393,85747.2,108.872,109.917,0.986324
7405,85886.4,108.852,109.879,0.973833
7417,86025.6,108.831,109.842,0.960089
7429,86164.8,108.809,109.806,0.935425
7441,86304,108.789,109.77,0.91386
7453,86443.2,108.766,109.735,0.876698
7465,86582.4,108.737,109.7,0.851052
7477,86721.6,108.701,109.666,0.834429
7489,86860.8,108.657,109.631,0.829969
7501,87000,108.612,109.596,0.839544
7513,87139.2,108.568,109.56,0.834773
7525,87278.4,108.529,109.524,0.849047
7537,87417.6,108.503,109.488,0.854265
7549,87556.8,108.486,109.453,0.850742
7561,87696,108.475,109.419,0.835024
7573,87835.2,108.463,109.386,0.809608
7585,87974.4,108.452,109.353,0.785738
7597,88113.6,108.442,109.322,0.759659
7609,88252.8,108.432,109.292,0.708551
7621,88392,108.419,109.262,0.674618
7633,88531.2,108.396,109.232,0.645675
7645,88670.4,108.367,109.203,0.623599
7657,88809.6,108.331,109.174,0.620607
7669,88948.8,108.29,109.144,0.619493
7681,89088,108.249,109.114,0.610238
7693,89227.2,108.212,109.083,0.620713
7705,89366.4,108.184,109.052,0.624617
7717,89505.6,108.166,109.022,0.626009
7729,89644.8,108.154,108.993,0.618312
7741,89784,108.144,108.964,0.613118
7753,89923.2,108.138,108.936,0.596314
7765,90062.4,108.132,108.909,0.566645
7777,90201.6,108.123,108.882,0.524729
7789,90340.8,108.109,108.857,0.493144
7801,90480,108.088,108.8328,0.475036
7813,90619.2,108.06,108.806,0.459754
7825,90758.4,108.031,108.781,0.453563
7837,90897.6,108.002,108.755,0.445489
7849,91036.8,107.981,108.73,0.444317
7861,91176,107.969,108.704,0.44126
7873,91315.2,107.962,108.68,0.427206
7885,91454.4,107.956,108.656,0.41063
7897,91593.6,107.946,108.633,0.393104
7909,91732.8,107.932,108.611,0.36457
7921,91872,107.918,108.589,0.350172
7933,92011.2,107.907,108.567,0.333881
7945,92150.4,107.897,108.546,0.312866
7957,92289.6,107.888,108.525,0.301908
7969,92428.8,107.882,108.504,0.280882
7981,92568,107.877,108.485,0.262992
7993,92707.2,107.872,108.466,0.2366
8005,92846.4,107.862,108.447,0.211775
8017,92985.6,107.848,108.429,0.190718
8029,93124.8,107.833,108.411,0.16997
8041,93264,107.822,108.393,0.157086
8053,93403.2,107.811,108.375,0.150495
8065,93542.4,107.802,108.358,0.14768
8077,93681.6,107.793,108.341,0.121246
8089,93820.8,107.785,108.324,0.110237
8101,93960,107.848,108.309,0.09387
8113,94099.2,108.356,108.301,-0.012601
8125,94238.4,109.197,108.318,-0.383959
8137,94377.6,110.0409,108.367,-1.005671
8149,94516.8,110.792,108.446,-1.83015
8161,94656,111.46,108.552,-2.756865
8173,94795.2,112.073,108.681,-3.717924
8185,94934.4,112.661,108.831,-4.623362
8197,95073.6,113.239,108.998,-5.467741
8209,95212.8,113.816,109.185,-6.263753
8221,95352,114.394,109.387,-7.00081
8233,95491.2,114.975,109.606,-7.700418
8245,95630.4,115.557,109.838,-8.364179
8257,95769.6,116.138,110.088,-8.99598
8269,95908.8,116.721,110.35,-9.601283
8281,96048,117.3021,110.626,-10.1968
8293,96187.2,117.885,110.916,-10.74678
8305,96326.4,118.467,111.218,-11.29411
8317,96465.6,119.047,111.533,-11.8054
8329,96604.8,119.629,111.858,-12.322
8341,96744,120.211,112.195,-12.8065
8353,96883.2,120.792,112.542,-13.2727
8365,97022.4,121.373,112.898,-13.71875
8377,97161.6,121.954,113.265,-14.1722
8389,97300.8,122.536,113.64,-14.5909
8401,97440,123.117,114.024,-15.0003
8413,97579.2,123.698,114.417,-15.406
8425,97718.4,124.278,114.817,-15.8078
8437,97857.6,124.859,115.226,-16.1847
8449,97996.8,125.44,115.641,-16.5684
8461,98136,126.021,116.064,-16.956
8473,98275.2,126.601,116.493,-17.3234
8485,98414.4,127.182,116.927,-17.6891
8497,98553.6,127.764,117.369,-18.0472
8509,98692.8,128.345,117.817,-18.429
8521,98832,128.923,118.27,-18.7982
8533,98971.2,129.505,118.728,-19.1953
8545,99110.4,130.085,119.191,-19.5915
8557,99249.6,130.664,119.659,-20.0139
8569,99388.8,131.243,120.13,-20.4515
8581,99528,131.825,120.608,-20.94712
8593,99667.2,132.406,121.089,-21.4651
8605,99806.4,132.9867,121.575,-22.0035
8617,99945.6,133.567,122.064,-22.5631
8629,100084.8,134.146,122.556,-23.1048
8641,100224,134.727,123.052,-23.5015
8653,100363.2,135.308,123.552,-23.71436
8665,100502.4,135.888,124.056,-23.7375
8677,100641.6,136.469,124.562,-23.7042
8689,100780.8,137.049,125.071,-23.6918
8701,100920,137.63,125.583,-23.756
8713,101059.2,138.209,126.097,-23.8573
8725,101198.4,138.787,126.615,-23.9892
8737,101337.6,139.368,127.135,-24.1307
8749,101476.8,139.949,127.657,-24.2814
8761,101616,140.529,128.181,-24.4272
8773,101755.2,141.109,128.707,-24.5768
8785,101894.4,141.689,129.237,-24.74191
8797,102033.6,142.27,129.769,-24.8791
8809,102172.8,142.8496,130.302,-25.0406
8821,102312,143.43,130.836,-25.1749
8833,102451.2,144.011,131.373,-25.33442
8845,102590.4,144.591,131.912,-25.4767
8857,102729.6,145.173,132.452,-25.6186
8869,102868.8,145.752,132.995,-25.7426
8881,103008,146.33,133.538,-25.8893
8893,103147.2,146.911,134.083,-26.0258
8905,103286.4,147.491,134.629,-26.15223
8917,103425.6,148.07,135.177,-26.2722
8929,103564.8,148.651,135.727,-26.4121
8941,103704,149.232,136.277,-26.5479
8953,103843.2,149.811,136.829,-26.6671
8965,103982.4,150.392,137.382,-26.78341
8977,104121.6,150.971,137.936,-26.9107
8989,104260.8,151.553,138.49,-27.02596
9001,104400,152.132,139.047,-27.1488
9013,104539.2,152.711,139.603,-27.2625
9025,104678.4,153.291,140.161,-27.3832
9037,104817.6,153.872,140.72,-27.4984
9049,104956.8,154.453,141.28,-27.6082
9061,105096,155.032,141.842,-27.7213
9073,105235.2,155.612,142.403,-27.8359
9085,105374.4,156.192,142.966,-27.948
9097,105513.6,156.773,143.529,-28.0571
9109,105652.8,157.353,144.093,-28.1609
9121,105792,157.934,144.658,-28.2683
9133,105931.2,158.513,145.224,-28.3636
9145,106070.4,159.094,145.79,-28.4554
9157,106209.6,159.673,146.357,-28.5381
9169,106348.8,160.253,146.925,-28.6183
9181,106488,160.834,147.493,-28.6676
9193,106627.2,161.414,148.062,-28.7041
9205,106766.4,161.994,148.631,-28.71067
9217,106905.6,162.574,149.201,-28.65401
9229,107044.8,163.156,149.771,-28.539
9241,107184,163.735,150.341,-28.3313
9253,107323.2,164.315,150.912,-28.0157
9265,107462.4,164.895,151.484,-27.5278
9277,107601.6,165.474,152.057,-26.8593
9289,107740.8,166.0548,152.629,-25.9428
9301,107880,166.635,153.202,-24.7127
9313,108019.2,167.214,153.776,-23.0452
9325,108158.4,167.796,154.35,-20.8217
9337,108297.6,168.374,154.923,-17.8751
9349,108436.8,168.954,155.498,-14.10136
9361,108576,169.535,156.074,-9.423326
9373,108715.2,170.115,156.649,-3.999932
9385,108854.4,170.694,157.225,1.756617
9397,108993.6,171.273,157.802,7.05836
9409,109132.8,171.854,158.378,10.6912
9421,109272,172.436,158.956,11.2443
9433,109411.2,173.015,159.532,7.817104
9445,109550.4,173.594,160.11,1.051982
9457,109689.6,174.173,160.687,-6.981413
9469,109828.8,174.752,161.264,-14.1251
9481,109968,175.334,161.84,-19.2591
9493,110107.2,175.915,162.417,-22.5164
9505,110246.4,176.494,162.995,-24.4962
9517,110385.6,177.072,163.572,-25.7362
9529,110524.8,177.654,164.15,-26.58533
9541,110664,178.234,164.727,-27.2221
9553,110803.2,178.817,165.306,-27.7504
9565,110942.4,179.397,165.884,-28.2012
9577,111081.6,179.976,166.464,-28.57
9589,111220.8,180.552,167.042,-28.8866
9601,111360,181.131,167.62,-29.1598
9613,111499.2,181.711,168.2,-29.4052
9625,111638.4,182.292,168.778,-29.6579
9637,111777.6,182.874,169.358,-29.994
9649,111916.8,183.455,169.938,-30.5473
9661,112056,184.035,170.518,-32.0774
9673,112195.2,184.615,171.099,-38.9441
9685,112334.4,185.193,171.679,-56.9583
9697,112473.6,185.773,172.259,-86.63271
9709,112612.8,186.354,172.839,-102.284
9721,112752,186.936,173.421,-54.8471
9733,112891.2,187.519,174.004,-13.2272
9745,113030.4,188.101,174.588,6.464136
9757,113169.6,188.681,175.173,8.490883
9769,113308.8,189.26,175.758,0.26212
9781,113448,189.84,176.343,-12.63175
9793,113587.2,190.415,176.928,-46.9932
9805,113726.4,190.992,177.51,-84.9329
9817,113865.6,191.569,178.093,-117.823
9829,114004.8,192.149,178.674,-161.036
9841,114144,192.731,179.255,-109.914
9853,114283.2,193.313,179.84,-76.4354
9865,114422.4,193.895,180.425,-58.4546
9877,114561.6,194.476,181.009,-48.4251
9889,114700.8,195.056,181.596,-42.806
9901,114840,195.635,182.183,-39.64914
9913,114979.2,196.216,182.769,-37.8934
9925,115118.4,196.798,183.355,-36.9205
9937,115257.6,197.38,183.943,-36.4429
9949,115396.8,197.961,184.529,-36.22581
9961,115536,198.538,185.117,-36.13551
9973,115675.2,199.115,185.705,-36.1312
9985,115814.4,199.692,186.292,-36.1835
9997,115953.6,200.272,186.88,-36.2352
10009,116092.8,200.854,187.467,-36.3239
10021,116232,201.437,188.055,-36.4496
10033,116371.2,202.016,188.643,-36.5589
10045,116510.4,202.596,189.231,-36.6921
10057,116649.6,203.177,189.82,-36.8343
10069,116788.8,203.757,190.408,-36.9582
10081,116928,204.334,190.996,-37.092
10093,117067.2,204.912,191.585,-37.1745
10105,117206.4,205.493,192.173,-37.25751
10117,117345.6,206.074,192.762,-37.3729
10129,117484.8,206.656,193.351,-37.45364
10141,117624,207.237,193.939,-37.5987
10153,117763.2,207.82,194.529,-37.6991
10165,117902.4,208.401,195.118,-37.8393
10177,118041.6,208.982,195.708,-37.997
10189,118180.8,209.562,196.299,-38.1635
10201,118320,210.138,196.888,-38.3011
10213,118459.2,210.716,197.479,-38.4532
10225,118598.4,211.294,198.068,-38.6064
10237,118737.6,211.874,198.658,-38.75019
10249,118876.8,212.456,199.248,-38.8776
10261,119016,213.037,199.838,-39.0017
10273,119155.2,213.617,200.428,-39.1409
10285,119294.4,214.199,201.018,-39.3068
10297,119433.6,214.78,201.609,-39.4625
10309,119572.8,215.359,202.2,-39.6162
10321,119712,215.938,202.79,-39.7359
10333,119851.2,216.517,203.381,-39.8831
10345,119990.4,217.096,203.971,-40.0129
10357,120129.6,217.676,204.562,-40.1378
10369,120268.8,218.255,205.153,-40.3196
10381,120408,218.837,205.742,-40.4991
10393,120547.2,219.417,206.333,-40.6535
10405,120686.4,219.997,206.924,-40.8603
10417,120825.6,220.577,207.516,-41.0572
10429,120964.8,221.156,208.107,-41.242
10441,121104,221.736,208.697,-41.3957
10453,121243.2,222.317,209.288,-41.5428
10465,121382.4,222.9,209.878,-41.69713
10477,121521.6,223.483,210.47,-41.8768
10489,121660.8,224.063,211.062,-42.05439
10501,121800,224.64,211.653,-42.2363
10513,121939.2,225.217,212.244,-42.3954
10525,122078.4,225.796,212.835,-42.5822
10537,122217.6,226.376,213.426,-42.7682
10549,122356.8,226.958,214.018,-42.9754
10561,122496,227.537,214.609,-43.1534
10573,122635.2,228.118,215.2,-43.3444
10585,122774.4,228.699,215.791,-43.5727
10597,122913.6,229.282,216.383,-43.7706
10609,123052.8,229.861,216.976,-44.11637
10621,123192,230.441,217.567,-44.3777
10633,123331.2,231.017,218.158,-44.64404
10645,123470.4,231.596,218.75,-44.81588
10657,123609.6,232.176,219.342,-45.02001
10669,123748.8,232.757,219.933,-45.3059
10681,123888,233.337,220.524,-45.5584
10693,124027.2,233.918,221.116,-45.7855
10705,124166.4,234.498,221.708,-46.0643
10717,124305.6,235.079,222.298,-46.2645
10729,124444.8,235.659,222.891,-46.5813
10741,124584,236.238,223.483,-46.8966
10753,124723.2,236.818,224.073,-47.1607
10765,124862.4,237.397,224.664,-47.4758
10777,125001.6,237.977,225.256,-47.7007
10789,125140.8,238.556,225.847,-47.9952
10801,125280,239.136,226.438,-48.316
10813,125419.2,239.717,227.03,-48.656
10825,125558.4,240.297,227.621,-48.98519
10837,125697.6,240.876,228.213,-49.2609
10849,125836.8,241.458,228.803,-49.58318
10861,125976,242.038,229.395,-49.9581
10873,126115.2,242.619,229.986,-50.2934
10885,126254.4,243.201,230.578,-50.6771
10897,126393.6,243.782,231.17,-51.05
10909,126532.8,244.362,231.761,-51.4833
10921,126672,244.943,232.352,-51.9444
10933,126811.2,245.52,232.945,-52.3882
10945,126950.4,246.097,233.536,-52.8932
10957,127089.6,246.678,234.128,-53.3362
10969,127228.8,247.258,234.719,-53.8469
10981,127368,247.838,235.31,-54.3128
10993,127507.2,248.418,235.902,-54.84
11005,127646.4,248.998,236.494,-55.333
11017,127785.6,249.578,237.086,-55.8376
11029,127924.8,250.159,237.677,-56.4439
11041,128064,250.737,238.268,-57.084
11053,128203.2,251.317,238.86,-57.7405
11065,128342.4,251.896,239.451,-58.4763
11077,128481.6,252.477,240.043,-59.1375
11089,128620.8,253.058,240.633,-59.8544
11101,128760,253.64,241.225,-60.603
11113,128899.2,254.219,241.816,-61.354
11125,129038.4,254.798,242.407,-62.1461
11137,129177.6,255.377,242.997,-63.0084
11149,129316.8,255.958,243.589,-63.9259
11161,129456,256.539,244.18,-64.8279
11173,129595.2,257.12,244.771,-65.78374
11185,129734.4,257.702,245.363,-66.7951
11197,129873.6,258.281,245.953,-67.95
11209,130012.8,258.859,246.545,-69.1364
11221,130152,259.438,247.136,-70.4014
11233,130291.2,260.019,247.727,-71.7218
11245,130430.4,260.599,248.319,-73.1005
11257,130569.6,261.178,248.909,-74.5039
11269,130708.8,261.759,249.5,-76.0661
11281,130848,262.339,250.091,-77.7273
11293,130987.2,262.918,250.682,-79.5228
11305,131126.4,263.496,251.272,-81.3636
11317,131265.6,264.077,251.863,-83.3354
11329,131404.8,264.657,252.453,-85.5058
11341,131544,265.239,253.044,-87.7629
11353,131683.2,265.82,253.635,-90.1555
11365,131822.4,266.399,254.225,-92.7941
11377,131961.6,266.977,254.816,-95.5953
11389,132100.8,267.557,255.406,-98.5795
11401,132240,268.139,255.996,-101.81
11413,132379.2,268.72,256.587,-105.379
11425,132518.4,269.3,257.177,-109.222
11437,132657.6,269.882,257.767,-113.367
11449,132796.8,270.46,258.358,-117.813
11461,132936,271.038,258.948,-122.685
11473,133075.2,271.618,259.538,-127.984
11485,133214.4,272.198,260.128,-133.752
11497,133353.6,272.777,260.717,-140.014
11509,133492.8,273.36,261.307,-146.854
11521,133632,273.937,261.897,-154.337
11533,133771.2,274.518,262.486,-162.561
11545,133910.4,275.097,263.075,-171.6
11557,134049.6,275.678,263.664,-181.527
11569,134188.8,276.259,264.253,-192.474
11581,134328,276.839,264.842,-204.555
11593,134467.2,277.419,265.43,-217.82
11605,134606.4,277.999,266.019,-232.338
11617,134745.6,278.579,266.607,-248.281
11629,134884.8,279.16,267.194,-265.715
11641,135024,279.741,267.782,-284.765
11653,135163.2,280.322,268.369,-305.497
11665,135302.4,280.902,268.956,-328.034
11677,135441.6,281.48,269.543,-351.961
11689,135580.8,282.06,270.129,-376.771
11701,135720,282.639,270.715,-402.898
11713,135859.2,283.22,271.301,-430.187
11725,135998.4,283.799,271.886,-458.043
11737,136137.6,284.377,272.47,-484.326
11749,136276.8,284.954,273.054,-507.018
11761,136416,285.532,273.638,-525.217
11773,136555.2,286.113,274.222,-536.795
11785,136694.4,286.695,274.805,-537.024
11797,136833.6,287.277,275.39,-517.521
11809,136972.8,287.859,275.975,-474.773
11821,137112,288.44,276.562,-369.675
11833,137251.2,289.022,277.153,-269.943
11845,137390.4,289.603,277.746,-205.516
11857,137529.6,290.181,278.34,-163.701
11869,137668.8,290.76,278.934,-136.655
11881,137808,291.338,279.528,-119.187
11893,137947.2,291.918,280.122,-107.917
11905,138086.4,292.499,280.717,-100.649
11917,138225.6,293.081,281.31,-95.9485
11929,138364.8,293.66,281.905,-92.9115
11941,138504,294.242,282.498,-90.9454
11953,138643.2,294.823,283.092,-89.67056
11965,138782.4,295.402,283.686,-88.84306
11977,138921.6,295.982,284.279,-88.2848
11989,139060.8,296.562,284.872,-87.9321
12001,139200,297.141,285.466,-87.678
12013,139339.2,297.721,286.057,-87.4819
12025,139478.4,298.3,286.65,-87.34399
12037,139617.6,298.879,287.242,-87.2199
12049,139756.8,299.32,287.834,-87.1251
12061,139896,299.315,288.407,-86.9013
12073,140035.2,299.275,288.949,-86.2386
12085,140174.4,299.24,289.462,-84.862
12097,140313.6,299.217,289.946,-82.7391
12109,140452.8,299.204,290.402,-80.027
12121,140592,299.196,290.834,-76.8966
12133,140731.2,299.192,291.242,-73.543
12145,140870.4,299.189,291.627,-70.0922
12157,141009.6,299.187,291.992,-66.6429
12169,141148.8,299.184,292.336,-63.2551
12181,141288,299.182,292.662,-59.9604
12193,141427.2,299.181,292.9699,-56.782
12205,141566.4,299.18,293.26,-53.7314
12217,141705.6,299.178,293.535,-50.8138
12229,141844.8,299.175,293.793,-48.0319
12241,141984,299.171,294.037,-45.3798
12253,142123.2,299.167,294.267,-42.8605
12265,142262.4,299.166,294.484,-40.4665
12277,142401.6,299.165,294.69,-38.1928
12289,142540.8,299.161,294.883,-36.0557
12301,142680,299.154,295.067,-34.0438
12313,142819.2,299.148,295.241,-32.161
12325,142958.4,299.148,295.405,-30.3784
12337,143097.6,299.149,295.56,-28.6819
12349,143236.8,299.153,295.706,-27.0892
12361,143376,299.155,295.845,-25.5848
12373,143515.2,299.154,295.976,-24.1691
12385,143654.4,299.151,296.099,-22.8321
12397,143793.6,299.149,296.217,-21.5641
12409,143932.8,299.151,296.326,-20.3599
12421,144072,299.153,296.43,-19.2
12433,144211.2,299.153,296.527,-18.1097
12445,144350.4,299.153,296.62,-17.0818
12457,144489.6,299.15,296.707,-16.10839
12469,144628.8,299.15,296.79,-15.1745
12481,144768,299.151,296.866,-14.2902
12493,144907.2,299.155,296.94,-13.4605
12505,145046.4,299.152,297.009,-12.6893
12517,145185.6,299.149,297.074,-11.9561
12529,145324.8,299.149,297.135,-11.2509
12541,145464,299.15,297.193,-10.59786
12553,145603.2,299.153,297.248,-9.964146
12565,145742.4,299.157,297.299,-9.359725
12577,145881.6,299.154,297.349,-8.810178
12589,146020.8,299.145,297.393,-8.300396
12601,146160,299.138,297.436,-7.790332
12613,146299.2,299.137,297.475,-7.28102
12625,146438.4,299.14,297.512,-6.804738
12637,146577.6,299.145,297.546,-6.355118
12649,146716.8,299.149,297.579,-5.93044
12661,146856,299.146,297.61,-5.550269
12673,146995.2,299.14,297.639,-5.181295
12685,147134.4,299.135,297.665,-4.851844
12697,147273.6,299.137,297.689,-4.505078
12709,147412.8,299.141,297.712,-4.168464
12721,147552,299.145,297.734,-3.869296
12733,147691.2,299.151,297.755,-3.574779
12745,147830.4,299.149,297.775,-3.323714
12757,147969.6,299.146,297.793,-3.116786
12769,148108.8,299.145,297.81,-2.913471
12781,148248,299.148,297.827,-2.714115
12793,148387.2,299.151,297.842,-2.522148
12805,148526.4,299.154,297.857,-2.349759
12817,148665.6,299.151,297.871,-2.195744
12829,148804.8,299.147,297.884,-2.052722
12841,148944,299.148,297.897,-1.89254
12853,149083.2,299.149,297.908,-1.742491
12865,149222.4,299.152,297.919,-1.623171
12877,149361.6,299.155,297.93,-1.503168
12889,149500.8,299.148,297.939,-1.410291
12901,149640,299.137,297.947,-1.303856
12913,149779.2,299.132,297.955,-1.17511
12925,149918.4,299.133,297.96,-1.023882
12937,150057.6,299.138,297.966,-0.865102
12949,150196.8,299.144,297.971,-0.722975
12961,150336,299.151,297.976,-0.605737
12973,150475.2,299.151,297.982,-0.525919
12985,150614.4,299.15,297.987,-0.458975
12997,150753.6,299.15,297.991,-0.411943
13009,150892.8,299.151,297.9956,-0.359419
13021,151032,299.144,298,-0.321313
13033,151171.2,299.133,298.004,-0.268275
13045,151310.4,299.13,298.005,-0.186917
13057,151449.6,299.132,298.006,-0.088052
13069,151588.8,299.139,298.006,0.01888
13081,151728,299.145,298.007,0.124782
13093,151867.2,299.151,298.008,0.201334
13105,152006.4,299.153,298.01,0.238236
13117,152145.6,299.152,298.012,0.250422
13129,152284.8,299.154,298.013,0.260377
13141,152424,299.155,298.016,0.253167
13153,152563.2,299.159,298.018,0.259346
13165,152702.4,299.16,298.021,0.255912
13177,152841.6,299.16,298.023,0.237547
13189,152980.8,299.16,298.026,0.199957
13201,153120,299.16,298.029,0.173696
13213,153259.2,299.161,298.032,0.152241
13225,153398.4,299.162,298.035,0.139197
13237,153537.6,299.161,298.039,0.116369
13249,153676.8,299.16,298.042,0.09766
13261,153816,299.161,298.046,0.095772
13273,153955.2,299.161,298.049,0.079295
13285,154094.4,299.162,298.052,0.064877
13297,154233.6,299.155,298.056,0.046169
13309,154372.8,299.147,298.059,0.055609
13321,154512,299.145,298.061,0.085816
13333,154651.2,299.147,298.063,0.110702
13345,154790.4,299.151,298.065,0.153781
13357,154929.6,299.154,298.067,0.19686
13369,155068.8,299.152,298.068,0.228954
13381,155208,299.144,298.071,0.250579
13393,155347.2,299.14,298.071,0.28542
13405,155486.4,299.142,298.072,0.340513
13417,155625.6,299.144,298.072,0.387024
13429,155764.8,299.15,298.072,0.415858
13441,155904,299.153,298.073,0.441087
13453,156043.2,299.149,298.074,0.459623
13465,156182.4,299.14,298.074,0.458593
13477,156321.6,299.137,298.074,0.496523
13489,156460.8,299.138,298.072,0.537886
13501,156600,299.143,298.071,0.58457
13513,156739.2,299.148,298.07,0.616151
13525,156878.4,299.151,298.07,0.637261
13537,157017.6,299.145,298.071,0.634
13549,157156.8,299.141,298.069,0.649619
13561,157296,299.14,298.067,0.664724
13573,157435.2,299.143,298.066,0.69167
13585,157574.4,299.148,298.066,0.714498
13597,157713.6,299.153,298.065,0.728915
13609,157852.8,299.152,298.064,0.727886
13621,157992,299.146,298.064,0.718447
13633,158131.2,299.141,298.062,0.704031
13645,158270.4,299.142,298.061,0.730635
13657,158409.6,299.145,298.059,0.744366
13669,158548.8,299.148,298.058,0.750202
13681,158688,299.153,298.057,0.768911
13693,158827.2,299.154,298.057,0.763076
13705,158966.4,299.151,298.057,0.747629
13717,159105.6,299.149,298.057,0.71931
13729,159244.8,299.15,298.056,0.709527
13741,159384,299.153,298.056,0.697169
13753,159523.2,299.157,298.056,0.67932
13765,159662.4,299.16,298.056,0.658895
13777,159801.6,299.153,298.058,0.619763
13789,159940.8,299.143,298.057,0.586295
13801,160080,299.137,298.057,0.600712
13813,160219.2,299.139,298.055,0.61616
13825,160358.4,299.142,298.053,0.668165
13837,160497.6,299.146,298.053,0.698373
13849,160636.8,299.154,298.051,0.72944
13861,160776,299.159,298.052,0.729611
13873,160915.2,299.159,298.053,0.71279
13885,161054.4,299.16,298.054,0.674516
13897,161193.6,299.16,298.055,0.624398
13909,161332.8,299.161,298.056,0.592131
13921,161472,299.162,298.058,0.544416
13933,161611.2,299.164,298.06,0.505283
13945,161750.4,299.16,298.062,0.470097
13957,161889.6,299.154,298.064,0.428047
13969,162028.8,299.151,298.066,0.408824
13981,162168,299.151,298.066,0.400414
13993,162307.2,299.153,298.068,0.406248
14005,162446.4,299.157,298.07,0.421351
14017,162585.6,299.159,298.072,0.425298
14029,162724.8,299.16,298.074,0.412253
14041,162864,299.159,298.076,0.403671
14053,163003.2,299.157,298.079,0.396118
14065,163142.4,299.156,298.081,0.383245
14077,163281.6,299.149,298.082,0.373977
14089,163420.8,299.14,298.083,0.37432
14101,163560,299.136,298.083,0.420316
14113,163699.2,299.137,298.083,0.486736
14125,163838.4,299.143,298.083,0.57255
14137,163977.6,299.146,298.082,0.606018
14149,164116.8,299.154,298.081,0.642231
14161,164256,299.159,298.083,0.646178
14173,164395.2,299.16,298.083,0.631589
14185,164534.4,299.16,298.086,0.600695
14197,164673.6,299.161,298.087,0.563279
14209,164812.8,299.161,298.089,0.53496
14221,164952,299.16,298.091,0.499432
14233,165091.2,299.16,298.093,0.453435
14245,165230.4,299.159,298.096,0.420997
14257,165369.6,299.159,298.098,0.403319
14269,165508.8,299.159,298.1006,0.380492
14281,165648,299.156,298.103,0.350628
14293,165787.2,299.154,298.105,0.338271
14305,165926.4,299.154,298.108,0.33192
14317,166065.6,299.155,298.108,0.335009
14329,166204.8,299.158,298.1117,0.342559
14341,166344,299.158,298.114,0.35337
14353,166483.2,299.16,298.116,0.356974
14365,166622.4,299.159,298.12,0.34084
14377,166761.6,299.156,298.122,0.332602
14389,166900.8,299.156,298.125,0.325221
14401,167040,299.157,298.127,0.317669
14413,167179.2,299.157,298.13,0.310632
14425,167318.4,299.161,298.133,0.308571
14437,167457.6,299.162,298.135,0.301019
14449,167596.8,299.162,298.139,0.289691
14461,167736,299.161,298.142,0.271671
14473,167875.2,299.162,298.146,0.263604
14485,168014.4,299.161,298.149,0.247642
14497,168153.6,299.162,298.153,0.233226
14509,168292.8,299.162,298.157,0.218809
14521,168432,299.162,298.16,0.20834
14533,168571.2,299.161,298.164,0.192208
14545,168710.4,299.161,298.168,0.185514
14557,168849.6,299.161,298.172,0.189289
14569,168988.8,299.16,298.175,0.184483
14581,169128,299.161,298.179,0.17573
14593,169267.2,299.16,298.184,0.163888
14605,169406.4,299.161,298.188,0.157023
14617,169545.6,299.16,298.192,0.153762
14629,169684.8,299.161,298.195,0.149986
14641,169824,299.162,298.199,0.147583
14653,169963.2,299.16,298.203,0.153589
14665,170102.4,299.16,298.207,0.153416
14677,170241.6,299.158,298.211,0.143977
14689,170380.8,299.157,298.214,0.140716
14701,170520,299.156,298.218,0.142432
14713,170659.2,299.154,298.222,0.144319
14725,170798.4,299.15,298.224,0.15839
14737,170937.6,299.15,298.227,0.193225
14749,171076.8,299.15,298.229,0.216906
14761,171216,299.149,298.232,0.251398
14773,171355.2,299.151,298.234,0.273019
14785,171494.4,299.151,298.237,0.297729
14797,171633.6,299.15,298.239,0.319522
14809,171772.8,299.151,298.24,0.343545
14821,171912,299.153,298.243,0.357787
14833,172051.2,299.155,298.245,0.370828
14845,172190.4,299.1547,298.247,0.37752
14857,172329.6,299.154,298.249,0.37975
14869,172468.8,299.153,298.252,0.38095
14881,172608,299.15,298.253,0.392618
14893,172747.2,299.148,298.255,0.418186
14897,172793.6,299.147,298.255,0.427452