File: z_unorganized_archive/i_data/0.25Kmin/H2O-NH3_4.9859g.csv
H2O 0wt%  Specific Heat - Large HF,,,,
Creation Date : 7/25/2022 9:36:48 AM,,,,
User : admin,,,,
,,,,
HeatFlow :,,,,
 Initial Mass : 4985.9 mg,,,,
 Molar Mass : 18 g/mol,,,,
,,,,
Index,Time(s),Furnace Temperature(K),Sample Temperature(K),HeatFlow(mW)
1,0,298.778,298.412,79.7892
13,139.2,298.721,298.435,49.4521
25,278.4,298.684,298.452,29.8205
37,417.6,298.655,298.466,17.21
49,556.8,298.63,298.478,9.175955
61,696,298.603,298.488,4.111941
73,835.2,298.573,298.495,0.96433
85,974.4,298.531,298.5,-0.890556
97,1113.6,298.474,298.501,-1.77013
109,1252.8,298.394,298.499,-2.147218
121,1392,298.286,298.492,-2.140025
133,1531.2,298.142,298.479,-1.81649
145,1670.4,297.959,298.456,-1.28708
157,1809.6,297.73,298.424,-0.562922
169,1948.8,297.445,298.379,0.375412
181,2088,297.086,298.318,1.570546
193,2227.2,296.64,298.238,3.046614
205,2366.4,296.096,298.135,4.868826
217,2505.6,295.45,298.003,7.128763
229,2644.8,294.706,297.84,9.89497
241,2784,293.874,297.641,13.2231
253,2923.2,292.972,297.403,17.1069
265,3062.4,292.018,297.126,21.5204
277,3201.6,291.025,296.81,26.4101
289,3340.8,290,296.454,31.6843
301,3480,288.953,296.059,37.2449
313,3619.2,287.89,295.627,42.9584
325,3758.4,286.816,295.159,48.7271
337,3897.6,285.738,294.656,54.50409
349,4036.8,284.662,294.123,60.2052
361,4176,283.589,293.56,65.73782
373,4315.2,282.525,292.972,71.01164
385,4454.4,281.471,292.362,75.9397
397,4593.6,280.431,291.728,80.5305
409,4732.8,279.406,291.068,84.9273
421,4872,278.393,290.388,89.1508
433,5011.2,277.391,289.688,93.1535
445,5150.4,276.402,288.973,96.8895
457,5289.6,275.426,288.242,100.355
469,5428.8,274.462,287.499,103.538
481,5568,273.511,286.743,106.426
493,5707.2,272.572,285.979,109.025
505,5846.4,271.644,285.206,111.338
517,5985.6,270.726,284.425,113.408
529,6124.8,269.819,283.638,115.243
541,6264,268.921,282.845,116.857
553,6403.2,268.033,282.049,118.292
565,6542.4,267.154,281.248,119.554
577,6681.6,266.284,280.445,120.676
589,6820.8,265.424,279.639,121.653
601,6960,264.571,278.832,122.494
613,7099.2,263.727,278.024,123.246
625,7238.4,262.891,277.215,123.895
637,7377.6,262.06,276.406,124.391
649,7516.8,261.237,275.597,124.856
661,7656,260.421,274.788,125.229
673,7795.2,259.611,273.981,125.539
685,7934.4,258.807,273.175,125.762
697,8073.6,258.01,272.371,125.979
709,8212.8,257.217,271.568,126.032
721,8352,256.432,270.767,126.06
733,8491.2,255.651,269.968,126.031
745,8630.4,254.876,269.172,126.116
757,8769.6,254.105,268.379,126.117
769,8908.8,253.339,267.587,125.824
781,9048,252.578,266.799,125.635
793,9187.2,251.822,266.014,125.669
805,9326.4,251.07,265.232,125.377
817,9465.6,250.323,264.452,124.985
829,9604.8,249.581,263.675,124.63
841,9744,248.843,262.902,124.318
853,9883.2,248.109,262.132,123.967
865,10022.4,247.381,261.366,123.764
877,10161.6,246.658,260.602,123.493
889,10300.8,245.939,259.842,123.15
901,10440,245.224,259.112,1890.35
913,10579.2,244.515,258.413,1892.43
925,10718.4,243.815,257.71,1894.54
937,10857.6,243.12,257.005,1896.67
949,10996.8,242.431,256.291,1394.78
961,11136,241.746,255.562,826.471
973,11275.2,241.064,254.827,515.685
985,11414.4,240.381,254.091,326.439
997,11553.6,239.702,253.357,215.089
1009,11692.8,239.023,252.625,149.346
1021,11832,238.348,251.896,110.422
1033,11971.2,237.676,251.17,87.389
1045,12110.4,237.007,250.448,73.8021
1057,12249.6,236.343,249.731,65.3241
1069,12388.8,235.683,249.016,60.4847
1081,12528,235.025,248.306,57.5306
1093,12667.2,234.371,247.6,55.2013
1105,12806.4,233.722,246.897,53.5279
1117,12945.6,233.075,246.199,52.5754
1129,13084.8,232.43,245.504,51.7634
1141,13224,231.788,244.812,51.3514
1153,13363.2,231.149,244.125,50.771
1165,13502.4,230.515,243.441,50.139
1177,13641.6,229.883,242.761,49.73598
1189,13780.8,229.254,242.084,49.3162
1201,13920,228.629,241.41,49.1188
1213,14059.2,228.01,240.74,48.7252
1225,14198.4,227.393,240.074,48.4285
1237,14337.6,226.779,239.412,47.83255
1249,14476.8,226.167,238.752,47.8139
1261,14616,225.557,238.097,47.3693
1273,14755.2,224.95,237.444,47.081
1285,14894.4,224.349,236.795,46.6338
1297,15033.6,223.749,236.15,46.2933
1309,15172.8,223.152,235.507,45.9602
1321,15312,222.557,234.867,45.5263
1333,15451.2,221.965,234.231,45.2154
1345,15590.4,221.376,233.599,44.8601
1357,15729.6,220.79,232.969,46.824
1369,15868.8,220.208,232.343,45.3524
1381,16008,219.629,231.719,44.534
1393,16147.2,219.055,231.099,44.0978
1405,16286.4,218.482,230.482,43.8193
1417,16425.6,217.914,229.868,43.9497
1429,16564.8,217.346,229.257,43.70591
1441,16704,216.781,228.649,43.0319
1453,16843.2,216.217,228.044,42.5285
1465,16982.4,215.656,227.443,42.0833
1477,17121.6,215.1,226.843,42.3727
1489,17260.8,214.547,226.247,42.18305
1501,17400,213.997,225.654,41.4762
1513,17539.2,213.452,225.064,40.7099
1525,17678.4,212.912,224.477,40.0402
1537,17817.6,212.376,223.894,39.8977
1549,17956.8,211.843,223.312,39.5587
1561,18096,211.31,222.735,39.4271
1573,18235.2,210.78,222.16,39.36711
1585,18374.4,210.253,221.588,38.8117
1597,18513.6,209.729,221.02,38.5697
1609,18652.8,209.21,220.456,38.5113
1621,18792,208.693,219.893,38.5864
1633,18931.2,208.18,219.333,37.9364
1645,19070.4,207.67,218.777,37.7949
1657,19209.6,207.161,218.224,37.4776
1669,19348.8,206.655,217.673,37.2288
1681,19488,206.152,217.126,37.0733
1693,19627.2,205.654,216.581,36.8026
1705,19766.4,205.159,216.039,36.5361
1717,19905.6,204.666,215.5,36.03179
1729,20044.8,204.174,214.966,35.649
1741,20184,203.685,214.433,35.5726
1753,20323.2,203.197,213.902,35.2992
1765,20462.4,202.712,213.375,35.089
1777,20601.6,202.23,212.85,34.99282
1789,20740.8,201.75,212.327,34.6646
1801,20880,201.275,211.808,34.0819
1813,21019.2,200.803,211.292,33.6807
1825,21158.4,200.333,210.777,33.3037
1837,21297.6,199.865,210.267,33.0962
1849,21436.8,199.4,209.758,32.9087
1861,21576,198.934,209.252,32.9306
1873,21715.2,198.47,208.748,32.8226
1885,21854.4,198.007,208.248,32.6741
1897,21993.6,197.547,207.749,32.5876
1909,22132.8,197.09,207.254,32.4767
1921,22272,196.637,206.76,31.9618
1933,22411.2,196.186,206.269,31.6276
1945,22550.4,195.738,205.781,31.3651
1957,22689.6,195.292,205.295,31.1386
1969,22828.8,194.847,204.811,30.8282
1981,22968,194.403,204.331,30.7024
1993,23107.2,193.962,203.851,30.5412
2005,23246.4,193.525,203.375,30.0455
2017,23385.6,193.091,202.901,29.6971
2029,23524.8,192.658,202.43,29.6004
2041,23664,192.226,201.96,29.2337
2053,23803.2,191.797,201.493,28.9199
2065,23942.4,191.369,201.028,28.7867
2077,24081.6,190.943,200.565,28.7386
2089,24220.8,190.52,200.106,28.7596
2101,24360,190.1,199.647,28.6448
2113,24499.2,189.684,199.192,28.4551
2125,24638.4,189.271,198.739,28.4031
2137,24777.6,188.859,198.288,28.16552
2149,24916.8,188.449,197.84,27.57586
2161,25056,188.04,197.393,27.1008
2173,25195.2,187.633,196.949,26.9647
2185,25334.4,187.227,196.507,27.1356
2197,25473.6,186.825,196.068,27.2055
2209,25612.8,186.425,195.63,26.7981
2221,25752,186.029,195.195,26.3486
2233,25891.2,185.633,194.762,26.203
2245,26030.4,185.237,194.331,25.9777
2257,26169.6,184.844,193.902,25.8086
2269,26308.8,184.45,193.475,25.5727
2281,26448,184.059,193.051,25.5406
2293,26587.2,183.67,192.628,25.3885
2305,26726.4,183.285,192.208,25.0246
2317,26865.6,182.901,191.789,24.9192
2329,27004.8,182.518,191.372,24.6555
2341,27144,182.136,190.957,24.3023
2353,27283.2,181.757,190.544,24.0683
2365,27422.4,181.382,190.134,24.0986
2377,27561.6,181.009,189.725,23.919
2389,27700.8,180.637,189.319,23.8508
2401,27840,180.267,188.914,23.6129
2413,27979.2,179.901,188.511,23.4039
2425,28118.4,179.537,188.111,23.4094
2437,28257.6,179.173,187.712,23.3634
2449,28396.8,178.81,187.315,23.2665
2461,28536,178.447,186.92,23.1668
2473,28675.2,178.087,186.527,22.9265
2485,28814.4,177.729,186.137,22.6252
2497,28953.6,177.372,185.748,22.4457
2509,29092.8,177.018,185.36,22.1359
2521,29232,176.666,184.975,21.64225
2533,29371.2,176.318,184.591,21.6047
2545,29510.4,175.972,184.209,21.5731
2557,29649.6,175.627,183.829,21.7935
2569,29788.8,175.282,183.451,21.75
2581,29928,174.941,183.076,21.47279
2593,30067.2,174.602,182.702,21.20513
2605,30206.4,174.264,182.33,20.9216
2617,30345.6,173.927,181.96,20.6259
2629,30484.8,173.591,181.591,20.3827
2641,30624,173.257,181.224,20.2788
2653,30763.2,172.925,180.86,20.286
2665,30902.4,172.594,180.497,20.4109
2677,31041.6,172.264,180.136,20.50371
2689,31180.8,171.938,179.776,19.9918
2701,31320,171.614,179.419,19.7359
2713,31459.2,171.292,179.063,19.2291
2725,31598.4,170.97,178.709,19.2145
2737,31737.6,170.647,178.356,19.0056
2749,31876.8,170.326,178.006,18.9085
2761,32016,170.007,177.657,18.7066
2773,32155.2,169.69,177.31,18.7124
2785,32294.4,169.375,176.964,18.4574
2797,32433.6,169.06,176.619,18.60221
2809,32572.8,168.751,176.277,18.4777
2821,32712,168.444,175.936,18.2539
2833,32851.2,168.135,175.597,18.15739
2845,32990.4,167.825,175.26,18.0024
2857,33129.6,167.513,174.923,17.8657
2869,33268.8,167.204,174.589,17.7812
2881,33408,166.897,174.256,17.8737
2893,33547.2,166.59,173.924,18.0733
2905,33686.4,166.286,173.594,17.687
2917,33825.6,165.985,173.265,17.5365
2929,33964.8,165.687,172.937,17.4862
2941,34104,165.392,172.611,17.2829
2953,34243.2,165.098,172.287,16.9913
2965,34382.4,164.805,171.964,16.9505
2977,34521.6,164.515,171.642,17.1752
2989,34660.8,164.228,171.323,16.9239
3001,34800,163.939,171.006,16.9005
3013,34939.2,163.649,170.689,16.6595
3025,35078.4,163.358,170.374,16.5812
3037,35217.6,163.069,170.061,16.6473
3049,35356.8,162.782,169.748,16.1749
3061,35496,162.496,169.437,15.8298
3073,35635.2,162.211,169.127,15.8167
3085,35774.4,161.93,168.818,15.887
3097,35913.6,161.653,168.512,15.9033
3109,36052.8,161.377,168.206,15.5319
3121,36192,161.102,167.903,15.4122
3133,36331.2,160.83,167.6,15.4668
3145,36470.4,160.561,167.3,15.2845
3157,36609.6,160.294,167.001,15.133
3169,36748.8,160.03,166.703,14.8168
3181,36888,159.767,166.407,14.9235
3193,37027.2,159.506,166.113,14.8511
3205,37166.4,159.246,165.821,14.8359
3217,37305.6,158.988,165.53,14.8671
3229,37444.8,158.731,165.241,14.72957
3241,37584,158.476,164.953,14.4866
3253,37723.2,158.223,164.667,14.2348
3265,37862.4,157.971,164.383,14.3888
3277,38001.6,157.72,164.101,14.229
3289,38140.8,157.47,163.819,14.29865
3301,38280,157.222,163.54,14.0639
3313,38419.2,156.975,163.262,13.8394
3325,38558.4,156.729,162.986,13.8257
3337,38697.6,156.482,162.7097,13.8748
3349,38836.8,156.237,162.437,14.0699
3361,38976,155.987,162.164,13.5782
3373,39115.2,155.732,161.893,13.3617
3385,39254.4,155.469,161.622,13.5346
3397,39393.6,155.201,161.352,13.782
3409,39532.8,154.929,161.08,13.7365
3421,39672,154.658,160.81,13.76505
3433,39811.2,154.387,160.541,13.6797
3445,39950.4,154.12,160.272,13.495
3457,40089.6,153.859,160.001,13.123
3469,40228.8,153.604,159.732,13.4072
3481,40368,153.358,159.464,13.2727
3493,40507.2,153.114,159.198,13.1372
3505,40646.4,152.875,158.932,13.0755
3517,40785.6,152.638,158.667,13.0701
3529,40924.8,152.402,158.405,13.0784
3541,41064,152.164,158.144,13.1312
3553,41203.2,151.925,157.884,13.0427
3565,41342.4,151.687,157.624,13.0649
3577,41481.6,151.45,157.366,12.88917
3589,41620.8,151.213,157.109,12.5385
3601,41760,150.974,156.852,12.5527
3613,41899.2,150.737,156.596,12.2758
3625,42038.4,150.503,156.342,12.3093
3637,42177.6,150.274,156.089,12.2167
3649,42316.8,150.048,155.836,12.3181
3661,42456,149.823,155.586,12.6023
3673,42595.2,149.596,155.336,12.4869
3685,42734.4,149.369,155.088,12.4319
3697,42873.6,149.144,154.841,12.3602
3709,43012.8,148.922,154.594,12.1729
3721,43152,148.704,154.349,12.0209
3733,43291.2,148.488,154.105,11.93989
3745,43430.4,148.274,153.862,11.7493
3757,43569.6,148.061,153.621,11.4815
3769,43708.8,147.85,153.382,11.3908
3781,43848,147.638,153.143,11.2923
3793,43987.2,147.426,152.906,11.0975
3805,44126.4,147.215,152.671,11.1076
3817,44265.6,147.004,152.436,11.0373
3829,44404.8,146.794,152.202,11.1034
3841,44544,146.584,151.969,11.0214
3853,44683.2,146.374,151.738,11.0879
3865,44822.4,146.167,151.508,11.2534
3877,44961.6,145.96,151.279,10.9618
3889,45100.8,145.754,151.051,10.9144
3901,45240,145.548,150.823,10.9232
3913,45379.2,145.344,150.597,10.7993
3925,45518.4,145.141,150.372,10.6737
3937,45657.6,144.937,150.148,10.59119
3949,45796.8,144.735,149.925,10.3582
3961,45936,144.531,149.703,10.2193
3973,46075.2,144.329,149.482,10.1693
3985,46214.4,144.129,149.261,10.30962
3997,46353.6,143.93,149.042,10.3005
4009,46492.8,143.731,148.824,10.323
4021,46632,143.533,148.607,10.1354
4033,46771.2,143.337,148.391,9.969152
4045,46910.4,143.142,148.175,9.936503
4057,47049.6,142.947,147.96,9.909675
4069,47188.8,142.754,147.746,9.871593
4081,47328,142.561,147.533,9.928931
4093,47467.2,142.371,147.322,9.733603
4105,47606.4,142.181,147.111,9.72227
4117,47745.6,141.994,146.901,9.769031
4129,47884.8,141.807,146.693,9.763867
4141,48024,141.619,146.486,9.619199
4153,48163.2,141.431,146.279,9.490699
4165,48302.4,141.244,146.073,9.362437
4177,48441.6,141.059,145.869,9.368009
4189,48580.8,140.874,145.664,9.341734
4201,48720,140.69,145.461,9.323877
4213,48859.2,140.508,145.259,9.320066
4225,48998.4,140.326,145.058,9.303862
4237,49137.6,140.145,144.857,9.476102
4249,49276.8,139.966,144.657,9.42768
4261,49416,139.786,144.459,9.248838
4273,49555.2,139.607,144.261,9.188905
4285,49694.4,139.426,144.064,8.982103
4297,49833.6,139.245,143.868,8.94226
4309,49972.8,139.065,143.673,8.920313
4321,50112,138.885,143.478,8.846027
4333,50251.2,138.707,143.285,8.593272
4345,50390.4,138.528,143.091,8.564766
4357,50529.6,138.351,142.899,8.551161
4369,50668.8,138.173,142.706,8.457578
4381,50808,137.996,142.516,8.494536
4393,50947.2,137.819,142.325,8.521373
4405,51086.4,137.645,142.135,8.484375
4417,51225.6,137.471,141.945,8.48617
4429,51364.8,137.299,141.758,8.429283
4441,51504,137.128,141.57,8.420193
4453,51643.2,136.956,141.383,8.373364
4465,51782.4,136.785,141.196,8.283328
4477,51921.6,136.614,141.011,8.215693
4489,52060.8,136.442,140.826,8.182088
4501,52200,136.271,140.642,8.206593
4513,52339.2,136.101,140.459,8.071642
4525,52478.4,135.931,140.275,8.198452
4537,52617.6,135.764,140.094,8.006626
4549,52756.8,135.597,139.912,7.94574
4561,52896,135.429,139.731,8.065445
4573,53035.2,135.265,139.55,8.168337
4585,53174.4,135.101,139.371,8.025712
4597,53313.6,134.941,139.192,7.913662
4609,53452.8,134.783,139.014,7.904966
4621,53592,134.626,138.837,7.860876
4633,53731.2,134.472,138.66,7.758184
4645,53870.4,134.319,138.486,7.644808
4657,54009.6,134.167,138.311,7.533315
4669,54148.8,134.019,138.138,7.470589
4681,54288,133.87,137.967,7.452596
4693,54427.2,133.723,137.796,7.403455
4705,54566.4,133.578,137.626,7.270787
4717,54705.6,133.434,137.457,7.246955
4729,54844.8,133.291,137.29,7.140021
4741,54984,133.148,137.123,7.136428
4753,55123.2,133.007,136.958,7.138549
4765,55262.4,132.866,136.794,7.084188
4777,55401.6,132.725,136.63,7.054159
4789,55540.8,132.585,136.468,6.996111
4801,55680,132.445,136.307,6.995904
4813,55819.2,132.305,136.146,6.921067
4825,55958.4,132.165,135.987,6.869256
4837,56097.6,132.026,135.827,6.93807
4849,56236.8,131.886,135.669,6.889335
4861,56376,131.745,135.512,6.812715
4873,56515.2,131.603,135.355,6.743107
4885,56654.4,131.461,135.2,6.607072
4897,56793.6,131.321,135.045,6.48038
4909,56932.8,131.181,134.891,6.493294
4921,57072,131.044,134.737,6.435574
4933,57211.2,130.907,134.584,6.341296
4945,57350.4,130.771,134.432,6.386272
4957,57489.6,130.636,134.28,6.388164
4969,57628.8,130.502,134.13,6.37643
4981,57768,130.369,133.979,6.301209
4993,57907.2,130.236,133.83,6.340332
5005,58046.4,130.104,133.682,6.233876
5017,58185.6,129.974,133.534,6.221383
5029,58324.8,129.843,133.387,6.161188
5041,58464,129.712,133.24,6.073282
5053,58603.2,129.581,133.094,6.096497
5065,58742.4,129.449,132.95,6.041075
5077,58881.6,129.317,132.805,5.983431
5089,59020.8,129.186,132.661,5.914106
5101,59160,129.057,132.517,5.872654
5113,59299.2,128.929,132.375,5.890561
5125,59438.4,128.802,132.232,5.84144
5137,59577.6,128.676,132.091,5.793817
5149,59716.8,128.552,131.951,5.774667
5161,59856,128.427,131.811,5.783583
5173,59995.2,128.303,131.671,5.753874
5185,60134.4,128.178,131.533,5.582068
5197,60273.6,128.052,131.395,5.522323
5209,60412.8,127.925,131.258,5.540486
5221,60552,127.796,131.121,5.577638
5233,60691.2,127.668,130.984,5.483526
5245,60830.4,127.542,130.848,5.446816
5257,60969.6,127.417,130.712,5.441845
5269,61108.8,127.294,130.576,5.472756
5281,61248,127.172,130.441,5.467772
5293,61387.2,127.05,130.308,5.458382
5305,61526.4,126.931,130.174,5.395277
5317,61665.6,126.813,130.0409,5.285152
5329,61804.8,126.694,129.909,5.290036
5341,61944,126.575,129.777,5.207763
5353,62083.2,126.457,129.645,5.245931
5365,62222.4,126.339,129.514,5.161836
5377,62361.6,126.222,129.385,5.085235
5389,62500.8,126.105,129.254,5.096796
5401,62640,125.989,129.126,5.150824
5413,62779.2,125.874,128.997,5.034765
5425,62918.4,125.758,128.87,5.04458
5437,63057.6,125.643,128.743,5.054408
5449,63196.8,125.526,128.616,4.989411
5461,63336,125.41,128.49,4.981017
5473,63475.2,125.293,128.364,4.935419
5485,63614.4,125.178,128.239,4.906556
5497,63753.6,125.064,128.114,4.891973
5509,63892.8,124.952,127.989,4.831814
5521,64032,124.84,127.865,4.755535
5533,64171.2,124.729,127.742,4.728594
5545,64310.4,124.618,127.62,4.713245
5557,64449.6,124.508,127.496,4.662441
5569,64588.8,124.397,127.375,4.735382
5581,64728,124.286,127.253,4.698342
5593,64867.2,124.176,127.133,4.601284
5605,65006.4,124.065,127.012,4.624883
5617,65145.6,123.956,126.893,4.600703
5629,65284.8,123.846,126.773,4.513641
5641,65424,123.736,126.653,4.506032
5653,65563.2,123.627,126.535,4.53183
5665,65702.4,123.518,126.416,4.488545
5677,65841.6,123.408,126.299,4.453235
5689,65980.8,123.3,126.18,4.422655
5701,66120,123.193,126.064,4.39786
5713,66259.2,123.087,125.947,4.470016
5725,66398.4,122.983,125.831,4.394855
5737,66537.6,122.878,125.715,4.300272
5749,66676.8,122.773,125.601,4.320653
5761,66816,122.669,125.486,4.303496
5773,66955.2,122.567,125.371,4.28465
5785,67094.4,122.466,125.258,4.234281
5797,67233.6,122.364,125.145,4.157183
5809,67372.8,122.261,125.032,4.141226
5821,67512,122.159,124.92,4.079117
5833,67651.2,122.056,124.808,4.068123
5845,67790.4,121.955,124.697,4.057972
5857,67929.6,121.854,124.586,4.031443
5869,68068.8,121.755,124.475,3.998378
5881,68208,121.656,124.365,4.044569
5893,68347.2,121.558,124.256,3.982917
5905,68486.4,121.461,124.147,3.95594
5917,68625.6,121.366,124.038,3.939952
5929,68764.8,121.273,123.931,3.905788
5941,68904,121.18,123.823,3.873872
5953,69043.2,121.089,123.716,3.813535
5965,69182.4,120.999,123.611,3.8118
5977,69321.6,120.91,123.505,3.783395
5989,69460.8,120.823,123.401,3.780757
6001,69600,120.736,123.297,3.798554
6013,69739.2,120.648,123.194,3.800737
6025,69878.4,120.561,123.091,3.707023
6037,70017.6,120.475,122.989,3.709121
6049,70156.8,120.39,122.889,3.643669
6061,70296,120.305,122.789,3.574722
6073,70435.2,120.219,122.689,3.500253
6085,70574.4,120.135,122.591,3.471314
6097,70713.6,120.05,122.492,3.458355
6109,70852.8,119.965,122.394,3.411634
6121,70992,119.881,122.296,3.404315
6133,71131.2,119.795,122.2,3.384364
6145,71270.4,119.712,122.104,3.362391
6157,71409.6,119.626,122.008,3.410569
6169,71548.8,119.535,121.913,3.39229
6181,71688,119.439,121.817,3.363966
6193,71827.2,119.337,121.721,3.345643
6205,71966.4,119.234,121.625,3.326159
6217,72105.6,119.13,121.53,3.311532
6229,72244.8,119.027,121.433,3.332852
6241,72384,118.928,121.336,3.335497
6253,72523.2,118.832,121.239,3.321167
6265,72662.4,118.736,121.143,3.323808
6277,72801.6,118.639,121.046,3.28408
6289,72940.8,118.54,120.949,3.315851
6301,73080,118.44,120.852,3.318209
6313,73219.2,118.344,120.755,3.326641
6325,73358.4,118.25,120.659,3.317451
6337,73497.6,118.16,120.562,3.331389
6349,73636.8,118.071,120.466,3.354584
6361,73776,117.981,120.369,3.340765
6373,73915.2,117.892,120.273,3.299981
6385,74054.4,117.806,120.178,3.262324
6397,74193.6,117.723,120.083,3.241415
6409,74332.8,117.644,119.989,3.26925
6421,74472,117.568,119.895,3.263987
6433,74611.2,117.493,119.802,3.236327
6445,74750.4,117.422,119.71,3.212992
6457,74889.6,117.352,119.62,3.179977
6469,75028.8,117.282,119.53,3.110549
6481,75168,117.213,119.44,3.080056
6493,75307.2,117.143,119.352,3.065224
6505,75446.4,117.074,119.264,3.023842
6517,75585.6,117.005,119.177,2.987638
6529,75724.8,116.934,119.091,2.982038
6541,75864,116.863,119.005,2.930867
6553,76003.2,116.791,118.921,2.902974
6565,76142.4,116.721,118.837,2.857517
6577,76281.6,116.651,118.753,2.837747
6589,76420.8,116.58,118.67,2.810024
6601,76560,116.506,118.587,2.783452
6613,76699.2,116.428,118.505,2.757142
6625,76838.4,116.349,118.422,2.746046
6637,76977.6,116.273,118.34,2.7452
6649,77116.8,116.198,118.259,2.743165
6661,77256,116.125,118.177,2.729676
6673,77395.2,116.053,118.096,2.704122
6685,77534.4,115.982,118.016,2.692635
6697,77673.6,115.911,117.935,2.658197
6709,77812.8,115.836,117.855,2.639612
6721,77952,115.757,117.775,2.631894
6733,78091.2,115.673,117.695,2.64951
6745,78230.4,115.586,117.615,2.664499
6757,78369.6,115.498,117.534,2.639394
6769,78508.8,115.41,117.454,2.631385
6781,78648,115.326,117.372,2.629286
6793,78787.2,115.246,117.291,2.643127
6805,78926.4,115.165,117.21,2.649609
6817,79065.6,115.082,117.129,2.685659
6829,79204.8,115.001,117.047,2.70579
6841,79344,114.922,116.967,2.694531
6853,79483.2,114.848,116.886,2.685046
6865,79622.4,114.78,116.805,2.692437
6877,79761.6,114.716,116.725,2.667804
6889,79900.8,114.654,116.647,2.653205
6901,80040,114.594,116.568,2.634426
6913,80179.2,114.533,116.491,2.610854
6925,80318.4,114.474,116.414,2.567945
6937,80457.6,114.418,116.338,2.548462
6949,80596.8,114.363,116.263,2.515559
6961,80736,114.31,116.189,2.478728
6973,80875.2,114.259,116.115,2.44096
6985,81014.4,114.208,116.043,2.404923
6997,81153.6,114.154,115.971,2.378371
7009,81292.8,114.096,115.9,2.352984
7021,81432,114.034,115.83,2.336519
7033,81571.2,113.972,115.761,2.320911
7045,81710.4,113.914,115.69,2.319942
7057,81849.6,113.86,115.622,2.306994
7069,81988.8,113.81,115.553,2.280277
7081,82128,113.764,115.485,2.262499
7093,82267.2,113.721,115.419,2.22224
7105,82406.4,113.679,115.353,2.195698
7117,82545.6,113.641,115.289,2.156541
7129,82684.8,113.603,115.226,2.119427
7141,82824,113.564,115.164,2.083466
7153,82963.2,113.523,115.102,2.044169
7165,83102.4,113.483,115.042,2.011417
7177,83241.6,113.444,114.982,1.981337
7189,83380.8,113.406,114.923,1.936805
7201,83520,113.37,114.865,1.900032
7213,83659.2,113.334,114.809,1.863515
7225,83798.4,113.299,114.752,1.819452
7237,83937.6,113.264,114.698,1.777134
7249,84076.8,113.229,114.643,1.72726
7261,84216,113.188,114.59,1.692086
7273,84355.2,113.142,114.537,1.655985
7285,84494.4,113.094,114.483,1.634615
7297,84633.6,113.045,114.431,1.621653
7309,84772.8,112.999,114.3776,1.607788
7321,84912,112.956,114.326,1.57158
7333,85051.2,112.91,114.274,1.552853
7345,85190.4,112.856,114.222,1.543758
7357,85329.6,112.797,114.17,1.535564
7369,85468.8,112.731,114.117,1.539756
7381,85608,112.662,114.065,1.544856
7393,85747.2,112.59,114.01,1.557535
7405,85886.4,112.519,113.9551,1.577486
7417,86025.6,112.449,113.9,1.600784
7429,86164.8,112.38,113.844,1.642255
7441,86304,112.319,113.788,1.660453
7453,86443.2,112.264,113.732,1.679284
7465,86582.4,112.214,113.676,1.687214
7477,86721.6,112.167,113.619,1.687279
7489,86860.8,112.124,113.565,1.678228
7501,87000,112.084,113.51,1.664924
7513,87139.2,112.046,113.456,1.649184
7525,87278.4,112.006,113.403,1.625218
7537,87417.6,111.962,113.35,1.594252
7549,87556.8,111.912,113.297,1.57784
7561,87696,111.858,113.243,1.558692
7573,87835.2,111.805,113.191,1.557747
7585,87974.4,111.755,113.138,1.548604
7597,88113.6,111.713,113.086,1.540357
7609,88252.8,111.675,113.034,1.532704
7621,88392,111.638,112.983,1.515604
7633,88531.2,111.597,112.933,1.496963
7645,88670.4,111.553,112.882,1.477405
7657,88809.6,111.508,112.832,1.460253
7669,88948.8,111.466,112.782,1.445533
7681,89088,111.429,112.733,1.432015
7693,89227.2,111.393,112.684,1.412993
7705,89366.4,111.358,112.636,1.385709
7717,89505.6,111.322,112.588,1.37397
7729,89644.8,111.288,112.54,1.348482
7741,89784,111.257,112.493,1.326024
7753,89923.2,111.229,112.448,1.302012
7765,90062.4,111.201,112.403,1.273087
7777,90201.6,111.171,112.358,1.26157
7789,90340.8,111.144,112.314,1.229545
7801,90480,111.118,112.272,1.19596
7813,90619.2,111.0931,112.23,1.171227
7825,90758.4,111.066,112.188,1.146474
7837,90897.6,111.036,112.147,1.12844
7849,91036.8,111.006,112.106,1.089256
7861,91176,110.977,112.066,1.071801
7873,91315.2,110.95,112.026,1.0528
7885,91454.4,110.924,111.987,1.038991
7897,91593.6,110.898,111.948,1.007999
7909,91732.8,110.873,111.91,0.98803
7921,91872,110.847,111.873,0.972034
7933,92011.2,110.82,111.836,0.946818
7945,92150.4,110.79,111.799,0.936018
7957,92289.6,110.758,111.763,0.912623
7969,92428.8,110.728,111.726,0.903647
7981,92568,110.7,111.691,0.885754
7993,92707.2,110.673,111.655,0.884446
8005,92846.4,110.645,111.619,0.857315
8017,92985.6,110.619,111.585,0.849228
8029,93124.8,110.594,111.55,0.83806
8041,93264,110.567,111.516,0.821041
8053,93403.2,110.537,111.482,0.816322
8065,93542.4,110.505,111.448,0.797131
8077,93681.6,110.475,111.415,0.791475
8089,93820.8,110.448,111.382,0.785816
8101,93960,110.422,111.348,0.774919
8113,94099.2,110.397,111.315,0.768945
8125,94238.4,110.375,111.283,0.76142
8137,94377.6,110.355,111.251,0.743105
8149,94516.8,110.342,111.219,0.723237
8161,94656,110.625,111.191,0.667263
8173,94795.2,111.381,111.182,0.424006
8185,94934.4,112.252,111.203,-0.083555
8197,95073.6,113.048,111.257,-0.839538
8209,95212.8,113.749,111.338,-1.758476
8221,95352,114.382,111.445,-2.725705
8233,95491.2,114.979,111.574,-3.706511
8245,95630.4,115.561,111.723,-4.628001
8257,95769.6,116.136,111.889,-5.488838
8269,95908.8,116.712,112.073,-6.282168
8281,96048,117.29,112.274,-7.035532
8293,96187.2,117.872,112.49,-7.762037
8305,96326.4,118.456,112.723,-8.446001
8317,96465.6,119.04,112.97,-9.092087
8329,96604.8,119.623,113.231,-9.723095
8341,96744,120.205,113.506,-10.3431
8353,96883.2,120.786,113.794,-10.92
8365,97022.4,121.368,114.095,-11.4804
8377,97161.6,121.948,114.408,-12.0152
8389,97300.8,122.527,114.732,-12.5344
8401,97440,123.108,115.067,-13.0305
8413,97579.2,123.692,115.412,-13.5122
8425,97718.4,124.274,115.768,-13.9737
8437,97857.6,124.856,116.133,-14.4191
8449,97996.8,125.438,116.507,-14.8466
8461,98136,126.018,116.89,-15.2717
8473,98275.2,126.599,117.282,-15.6662
8485,98414.4,127.179,117.682,-16.0585
8497,98553.6,127.758,118.089,-16.4238
8509,98692.8,128.338,118.503,-16.7821
8521,98832,128.918,118.925,-17.1243
8533,98971.2,129.5,119.353,-17.4554
8545,99110.4,130.081,119.788,-17.7698
8557,99249.6,130.661,120.228,-18.0889
8569,99388.8,131.243,120.675,-18.3852
8581,99528,131.824,121.127,-18.68393
8593,99667.2,132.405,121.585,-18.9611
8605,99806.4,132.985,122.047,-19.2412
8617,99945.6,133.565,122.514,-19.51
8629,100084.8,134.145,122.986,-19.7636
8641,100224,134.726,123.462,-20.01734
8653,100363.2,135.307,123.944,-20.2461
8665,100502.4,135.887,124.43,-20.49175
8677,100641.6,136.469,124.919,-20.7352
8689,100780.8,137.05,125.411,-20.953
8701,100920,137.631,125.908,-21.1683
8713,101059.2,138.21,126.408,-21.3773
8725,101198.4,138.784,126.912,-21.5862
8737,101337.6,139.357,127.418,-21.7886
8749,101476.8,139.932,127.926,-21.9756
8761,101616,140.512,128.436,-22.1455
8773,101755.2,141.094,128.95,-22.3166
8785,101894.4,141.678,129.466,-22.4766
8797,102033.6,142.262,129.986,-22.6499
8809,102172.8,142.845,130.507,-22.8235
8821,102312,143.428,131.031,-22.9864
8833,102451.2,144.01,131.557,-23.1636
8845,102590.4,144.59,132.086,-23.3334
8857,102729.6,145.169,132.616,-23.49441
8869,102868.8,145.748,133.149,-23.6476
8881,103008,146.328,133.684,-23.794
8893,103147.2,146.909,134.22,-23.9361
8905,103286.4,147.493,134.758,-24.0956
8917,103425.6,148.078,135.299,-24.24553
8929,103564.8,148.664,135.842,-24.3814
8941,103704,149.246,136.387,-24.54
8953,103843.2,149.825,136.934,-24.6893
8965,103982.4,150.402,137.482,-24.8363
8977,104121.6,150.979,138.03,-24.9828
8989,104260.8,151.557,138.58,-25.1175
9001,104400,152.132,139.133,-25.2413
9013,104539.2,152.707,139.685,-25.3616
9025,104678.4,153.283,140.239,-25.48242
9037,104817.6,153.863,140.793,-25.5935
9049,104956.8,154.445,141.348,-25.6938
9061,105096,155.0278,141.905,-25.8047
9073,105235.2,155.612,142.4616,-25.91982
9085,105374.4,156.195,143.021,-26.0355
9097,105513.6,156.779,143.58,-26.1393
9109,105652.8,157.36,144.141,-26.257
9121,105792,157.941,144.702,-26.3798
9133,105931.2,158.521,145.266,-26.4859
9145,106070.4,159.099,145.83,-26.5998
9157,106209.6,159.675,146.395,-26.70836
9169,106348.8,160.252,146.96,-26.8116
9181,106488,160.831,147.526,-26.9151
9193,106627.2,161.411,148.093,-27.0221
9205,106766.4,161.993,148.659,-27.1261
9217,106905.6,162.576,149.227,-27.21807
9229,107044.8,163.158,149.796,-27.32069
9241,107184,163.738,150.365,-27.4238
9253,107323.2,164.317,150.935,-27.5139
9265,107462.4,164.894,151.505,-27.6101
9277,107601.6,165.473,152.0763,-27.6986
9289,107740.8,166.054,152.647,-27.7938
9301,107880,166.635,153.219,-27.8815
9313,108019.2,167.217,153.791,-27.9707
9325,108158.4,167.798,154.364,-28.0635
9337,108297.6,168.378,154.937,-28.1572
9349,108436.8,168.959,155.511,-28.2518
9361,108576,169.538,156.085,-28.3406
9373,108715.2,170.117,156.659,-28.4266
9385,108854.4,170.6957,157.234,-28.5217
9397,108993.6,171.274,157.81,-28.6041
9409,109132.8,171.854,158.384,-28.6975
9421,109272,172.437,158.96,-28.7758
9433,109411.2,173.017,159.536,-28.8595
9445,109550.4,173.598,160.112,-28.94884
9457,109689.6,174.179,160.69,-29.0355
9469,109828.8,174.757,161.267,-29.1171
9481,109968,175.334,161.844,-29.2006
9493,110107.2,175.9112,162.421,-29.2771
9505,110246.4,176.491,162.998,-29.361
9517,110385.6,177.072,163.575,-29.4448
9529,110524.8,177.654,164.153,-29.5287
9541,110664,178.237,164.731,-29.6083
9553,110803.2,178.818,165.309,-29.6966
9565,110942.4,179.398,165.888,-29.7774
9577,111081.6,179.978,166.468,-29.8679
9589,111220.8,180.558,167.046,-29.9575
9601,111360,181.1379,167.627,-30.0418
9613,111499.2,181.716,168.207,-30.1236
9625,111638.4,182.295,168.786,-30.2056
9637,111777.6,182.876,169.366,-30.2961
9649,111916.8,183.457,169.947,-30.3792
9661,112056,184.037,170.528,-30.47019
9673,112195.2,184.617,171.11,-30.5563
9685,112334.4,185.197,171.692,-30.6532
9697,112473.6,185.777,172.274,-30.7423
9709,112612.8,186.356,172.857,-30.83
9721,112752,186.935,173.44,-30.9121
9733,112891.2,187.514,174.023,-31.0011
9745,113030.4,188.094,174.606,-31.0893
9757,113169.6,188.676,175.189,-31.1788
9769,113308.8,189.257,175.773,-31.2671
9781,113448,189.837,176.357,-31.362
9793,113587.2,190.417,176.942,-31.4465
9805,113726.4,190.998,177.527,-31.5313
9817,113865.6,191.577,178.112,-31.6117
9829,114004.8,192.155,178.697,-31.70436
9841,114144,192.733,179.283,-31.78904
9853,114283.2,193.314,179.869,-31.8783
9865,114422.4,193.894,180.454,-31.9647
9877,114561.6,194.475,181.04,-32.0491
9889,114700.8,195.057,181.626,-32.1341
9901,114840,195.636,182.212,-32.21951
9913,114979.2,196.216,182.799,-32.3102
9925,115118.4,196.797,183.386,-32.3856
9937,115257.6,197.378,183.973,-32.4573
9949,115396.8,197.957,184.561,-32.53999
9961,115536,198.537,185.147,-32.6384
9973,115675.2,199.117,185.736,-32.7211
9985,115814.4,199.696,186.323,-32.8036
9997,115953.6,200.276,186.911,-32.8771
10009,116092.8,200.856,187.498,-32.9386
10021,116232,201.436,188.086,-33.0266
10033,116371.2,202.017,188.674,-33.105
10045,116510.4,202.597,189.263,-33.1822
10057,116649.6,203.176,189.852,-33.2689
10069,116788.8,203.757,190.44,-33.3692
10081,116928,204.336,191.028,-33.4321
10093,117067.2,204.916,191.618,-33.52685
10105,117206.4,205.496,192.207,-33.59
10117,117345.6,206.077,192.796,-33.6723
10129,117484.8,206.658,193.385,-33.7437
10141,117624,207.238,193.974,-33.8477
10153,117763.2,207.818,194.564,-33.9258
10165,117902.4,208.399,195.154,-34.0253
10177,118041.6,208.978,195.743,-34.0851
10189,118180.8,209.557,196.333,-34.1736
10201,118320,210.138,196.922,-34.2937
10213,118459.2,210.719,197.514,-34.3639
10225,118598.4,211.299,198.103,-34.44466
10237,118737.6,211.876,198.694,-34.4677
10249,118876.8,212.454,199.283,-34.56654
10261,119016,213.032,199.873,-34.6606
10273,119155.2,213.613,200.462,-34.7208
10285,119294.4,214.193,201.052,-34.75
10297,119433.6,214.774,201.642,-34.8471
10309,119572.8,215.355,202.233,-34.9577
10321,119712,215.936,202.822,-35.0632
10333,119851.2,216.518,203.412,-35.1319
10345,119990.4,217.097,204.003,-35.2385
10357,120129.6,217.677,204.594,-35.2945
10369,120268.8,218.258,205.184,-35.3921
10381,120408,218.837,205.774,-35.45136
10393,120547.2,219.418,206.365,-35.5069
10405,120686.4,219.998,206.955,-35.6068
10417,120825.6,220.575,207.546,-35.6716
10429,120964.8,221.154,208.136,-35.7461
10441,121104,221.733,208.727,-35.8053
10453,121243.2,222.313,209.317,-35.814
10465,121382.4,222.893,209.907,-35.8666
10477,121521.6,223.474,210.498,-35.9868
10489,121660.8,224.057,211.088,-36.1142
10501,121800,224.639,211.678,-36.1933
10513,121939.2,225.22,212.269,-36.2594
10525,122078.4,225.801,212.86,-36.3639
10537,122217.6,226.378,213.451,-36.4987
10549,122356.8,226.956,214.042,-36.6121
10561,122496,227.534,214.634,-36.7084
10573,122635.2,228.115,215.224,-36.7872
10585,122774.4,228.696,215.814,-36.8677
10597,122913.6,229.277,216.406,-36.8798
10609,123052.8,229.855,216.996,-36.9422
10621,123192,230.435,217.587,-36.9704
10633,123331.2,231.015,218.177,-37.0436
10645,123470.4,231.595,218.768,-37.1674
10657,123609.6,232.175,219.359,-37.26913
10669,123748.8,232.756,219.95,-37.3598
10681,123888,233.337,220.54,-37.411
10693,124027.2,233.919,221.131,-37.4547
10705,124166.4,234.5,221.722,-37.61798
10717,124305.6,235.079,222.313,-37.6772
10729,124444.8,235.659,222.904,-37.7069
10741,124584,236.241,223.495,-37.813
10753,124723.2,236.822,224.086,-37.8785
10765,124862.4,237.403,224.678,-38.0213
10777,125001.6,237.983,225.27,-38.1297
10789,125140.8,238.5618,225.862,-38.2306
10801,125280,239.139,226.454,-38.1907
10813,125419.2,239.717,227.045,-38.2903
10825,125558.4,240.296,227.636,-38.3916
10837,125697.6,240.877,228.228,-38.527
10849,125836.8,241.458,228.819,-38.6493
10861,125976,242.037,229.41,-38.7223
10873,126115.2,242.617,230.0017,-38.82
10885,126254.4,243.197,230.593,-38.9137
10897,126393.6,243.777,231.184,-38.9209
10909,126532.8,244.356,231.775,-38.96852
10921,126672,244.936,232.367,-39.0419
10933,126811.2,245.516,232.957,-39.187
10945,126950.4,246.097,233.549,-39.2602
10957,127089.6,246.677,234.138,-39.309
10969,127228.8,247.256,234.729,-39.4455
10981,127368,247.836,235.32,-39.4908
10993,127507.2,248.416,235.913,-39.5207
11005,127646.4,248.997,236.504,-39.609
11017,127785.6,249.577,237.095,-39.7365
11029,127924.8,250.157,237.687,-39.8772
11041,128064,250.739,238.277,-39.9878
11053,128203.2,251.32,238.868,-40.0914
11065,128342.4,251.9,239.46,-40.1871
11077,128481.6,252.479,240.051,-40.2684
11089,128620.8,253.06,240.642,-40.3445
11101,128760,253.64,241.234,-40.41234
11113,128899.2,254.222,241.825,-40.4691
11125,129038.4,254.803,242.417,-40.43735
11137,129177.6,255.385,243.009,-40.55421
11149,129316.8,255.964,243.601,-40.6768
11161,129456,256.544,244.193,-40.85007
11173,129595.2,257.123,244.785,-40.9738
11185,129734.4,257.701,245.377,-41.0796
11197,129873.6,258.279,245.969,-41.1257
11209,130012.8,258.858,246.561,-41.194
11221,130152,259.439,247.153,-41.2535
11233,130291.2,260.02,247.744,-41.3504
11245,130430.4,260.599,248.336,-41.415
11257,130569.6,261.178,248.928,-41.5307
11269,130708.8,261.756,249.519,-41.5873
11281,130848,262.336,250.11,-41.6728
11293,130987.2,262.915,250.701,-41.7449
11305,131126.4,263.497,251.293,-41.8667
11317,131265.6,264.078,251.884,-41.9136
11329,131404.8,264.658,252.475,-42.0356
11341,131544,265.238,253.066,-42.1319
11353,131683.2,265.818,253.657,-42.1839
11365,131822.4,266.4,254.249,-42.30158
11377,131961.6,266.981,254.84,-42.4258
11389,132100.8,267.561,255.432,-42.5113
11401,132240,268.14,256.023,-42.6487
11413,132379.2,268.72,256.613,-42.7455
11425,132518.4,269.298,257.205,-42.8136
11437,132657.6,269.8776,257.797,-42.8867
11449,132796.8,270.459,258.388,-42.9592
11461,132936,271.038,258.978,-43.0695
11473,133075.2,271.618,259.57,-43.1832
11485,133214.4,272.197,260.16,-43.3033
11497,133353.6,272.777,260.751,-43.3699
11509,133492.8,273.357,261.342,-43.4734
11521,133632,273.937,261.933,-43.5937
11533,133771.2,274.518,262.524,-43.699
11545,133910.4,275.098,263.114,-43.80728
11557,134049.6,275.679,263.704,-43.9212
11569,134188.8,276.26,264.295,-44.01267
11581,134328,276.841,264.886,-44.1336
11593,134467.2,277.419,265.477,-44.2497
11605,134606.4,278.001,266.068,-44.3827
11617,134745.6,278.581,266.658,-44.5056
11629,134884.8,279.16,267.249,-44.6306
11641,135024,279.738,267.84,-44.7563
11653,135163.2,280.317,268.43,-44.891
11665,135302.4,280.897,269.021,-45.021
11677,135441.6,281.478,269.611,-45.1619
11689,135580.8,282.06,270.201,-45.3255
11701,135720,282.64,270.792,-45.4939
11713,135859.2,283.22,271.383,-45.67538
11725,135998.4,283.8,271.972,-45.8562
11737,136137.6,284.38,272.563,-46.0865
11749,136276.8,284.959,273.153,-46.3741
11761,136416,285.5395,273.743,-46.9322
11773,136555.2,286.119,274.335,-50.1399
11785,136694.4,286.699,274.925,-110.294
11797,136833.6,287.28,275.511,-208.028
11809,136972.8,287.86,276.097,-306.552
11821,137112,288.44,276.68,-406.405
11833,137251.2,289.018,277.261,-503.89
11845,137390.4,289.595,277.841,-598.618
11857,137529.6,290.175,278.418,-686.603
11869,137668.8,290.755,278.994,-766.128
11881,137808,291.337,279.569,-836.385
11893,137947.2,291.919,280.144,-900.375
11905,138086.4,292.5,280.718,-953.229
11917,138225.6,293.081,281.292,-999.328
11929,138364.8,293.66,281.866,-1041.84
11941,138504,294.239,282.439,-1046.25
11953,138643.2,294.816,283.015,-999.001
11965,138782.4,295.393,283.593,-919.622
11977,138921.6,295.972,284.174,-802.334
11989,139060.8,296.553,284.757,-614.225
12001,139200,297.133,285.346,-431.567
12013,139339.2,297.716,285.938,-312.364
12025,139478.4,298.2955,286.532,-234.522
12037,139617.6,298.875,287.128,-184.207
12049,139756.8,299.316,287.722,-151.62
12061,139896,299.3114,288.298,-130.323
12073,140035.2,299.273,288.846,-116.077
12085,140174.4,299.239,289.362,-105.875
12097,140313.6,299.213,289.849,-97.982
12109,140452.8,299.199,290.31,-91.5056
12121,140592,299.191,290.744,-85.8597
12133,140731.2,299.187,291.154,-80.7988
12145,140870.4,299.186,291.542,-76.1855
12157,141009.6,299.184,291.909,-71.9029
12169,141148.8,299.181,292.256,-67.9236
12181,141288,299.178,292.583,-64.19582
12193,141427.2,299.176,292.893,-60.6874
12205,141566.4,299.175,293.185,-57.3707
12217,141705.6,299.175,293.46,-54.2372
12229,141844.8,299.171,293.721,-51.2704
12241,141984,299.169,293.966,-48.4513
12253,142123.2,299.168,294.198,-45.7927
12265,142262.4,299.169,294.417,-43.261
12277,142401.6,299.17,294.623,-40.8814
12289,142540.8,299.168,294.82,-38.64266
12301,142680,299.167,295.0056,-36.5538
12313,142819.2,299.164,295.182,-34.6068
12325,142958.4,299.162,295.349,-32.7806
12337,143097.6,299.162,295.507,-31.0776
12349,143236.8,299.164,295.658,-29.456
12361,143376,299.165,295.799,-27.9387
12373,143515.2,299.165,295.933,-26.4991
12385,143654.4,299.165,296.061,-25.1374
12397,143793.6,299.165,296.182,-23.8344
12409,143932.8,299.165,296.296,-22.61371
12421,144072,299.163,296.405,-21.4525
12433,144211.2,299.162,296.507,-20.3427
12445,144350.4,299.161,296.604,-19.2878
12457,144489.6,299.161,296.694,-18.2727
12469,144628.8,299.157,296.78,-17.3206
12481,144768,299.15,296.86,-16.4125
12493,144907.2,299.145,296.937,-15.543
12505,145046.4,299.145,297.008,-14.6868
12517,145185.6,299.146,297.074,-13.8865
12529,145324.8,299.15,297.138,-13.0979
12541,145464,299.149,297.196,-12.3596
12553,145603.2,299.147,297.252,-11.6723
12565,145742.4,299.147,297.304,-11.0154
12577,145881.6,299.147,297.353,-10.4145
12589,146020.8,299.149,297.4,-9.836925
12601,146160,299.153,297.444,-9.289519
12613,146299.2,299.152,297.486,-8.793698
12625,146438.4,299.145,297.525,-8.340868
12637,146577.6,299.14,297.561,-7.889475
12649,146716.8,299.142,297.595,-7.453415
12661,146856,299.144,297.626,-7.04075
12673,146995.2,299.147,297.657,-6.642538
12685,147134.4,299.148,297.685,-6.270808
12697,147273.6,299.145,297.711,-5.927435
12709,147412.8,299.146,297.736,-5.59027
12721,147552,299.147,297.759,-5.283861
12733,147691.2,299.146,297.782,-5.000304
12745,147830.4,299.138,297.802,-4.73943
12757,147969.6,299.131,297.82,-4.478576
12769,148108.8,299.131,297.8363,-4.20864
12781,148248,299.134,297.851,-3.936145
12793,148387.2,299.14,297.865,-3.667607
12805,148526.4,299.146,297.879,-3.426373
12817,148665.6,299.152,297.891,-3.216733
12829,148804.8,299.155,297.904,-3.043318
12841,148944,299.153,297.917,-2.899606
12853,149083.2,299.145,297.928,-2.793148
12865,149222.4,299.137,297.938,-2.678286
12877,149361.6,299.135,297.946,-2.539056
12889,149500.8,299.138,297.954,-2.397596
12901,149640,299.144,297.962,-2.241722
12913,149779.2,299.148,297.969,-2.104733
12925,149918.4,299.149,297.976,-1.991946
12937,150057.6,299.146,297.982,-1.899246
12949,150196.8,299.144,297.988,-1.798137
12961,150336,299.145,297.993,-1.722091
12973,150475.2,299.148,297.999,-1.654454
12985,150614.4,299.152,298.004,-1.572917
12997,150753.6,299.15,298.009,-1.512835
13009,150892.8,299.143,298.012,-1.459279
13021,151032,299.142,298.016,-1.390102
13033,151171.2,299.143,298.019,-1.318011
13045,151310.4,299.146,298.022,-1.249181
13057,151449.6,299.151,298.024,-1.170224
13069,151588.8,299.15,298.027,-1.115468
13081,151728,299.145,298.03,-1.080623
13093,151867.2,299.144,298.032,-1.036682
13105,152006.4,299.147,298.033,-0.986907
13117,152145.6,299.148,298.036,-0.950861
13129,152284.8,299.153,298.038,-0.906577
13141,152424,299.149,298.04,-0.894217
13153,152563.2,299.146,298.042,-0.884433
13165,152702.4,299.144,298.043,-0.86538
13177,152841.6,299.148,298.043,-0.817666
13189,152980.8,299.152,298.045,-0.784196
13201,153120,299.154,298.046,-0.7648
13213,153259.2,299.15,298.048,-0.757762
13225,153398.4,299.145,298.049,-0.746948
13237,153537.6,299.145,298.049,-0.722404
13249,153676.8,299.147,298.049,-0.691167
13261,153816,299.152,298.05,-0.663534
13273,153955.2,299.154,298.051,-0.637616
13285,154094.4,299.15,298.052,-0.633668
13297,154233.6,299.146,298.053,-0.633496
13309,154372.8,299.145,298.052,-0.612385
13321,154512,299.146,298.053,-0.58664
13333,154651.2,299.151,298.053,-0.558149
13345,154790.4,299.1547,298.053,-0.538583
13357,154929.6,299.153,298.054,-0.54459
13369,155068.8,299.151,298.055,-0.54991
13381,155208,299.152,298.056,-0.558148
13393,155347.2,299.154,298.056,-0.566043
13405,155486.4,299.158,298.057,-0.568617
13417,155625.6,299.155,298.059,-0.584749
13429,155764.8,299.149,298.06,-0.603628
13441,155904,299.146,298.06,-0.604829
13453,156043.2,299.146,298.06,-0.603113
13465,156182.4,299.147,298.06,-0.595904
13477,156321.6,299.152,298.061,-0.563294
13489,156460.8,299.153,298.0612,-0.53137
13501,156600,299.149,298.062,-0.499275
13513,156739.2,299.146,298.062,-0.461688
13525,156878.4,299.148,298.061,-0.406766
13537,157017.6,299.146,298.061,-0.355963
13549,157156.8,299.152,298.061,-0.28199
13561,157296,299.153,298.062,-0.239082
13573,157435.2,299.151,298.062,-0.194458
13585,157574.4,299.151,298.063,-0.099374
13597,157713.6,299.151,298.063,-0.044109
13609,157852.8,299.154,298.063,-0.005321
13621,157992,299.151,298.064,0.010298
13633,158131.2,299.148,298.064,0.041535
13645,158270.4,299.146,298.064,0.057153
13657,158409.6,299.147,298.064,0.077062
13669,158548.8,299.151,298.063,0.110015
13681,158688,299.155,298.064,0.123402
13693,158827.2,299.156,298.064,0.141939
13705,158966.4,299.149,298.066,0.129924
13717,159105.6,299.141,298.065,0.130439
13729,159244.8,299.139,298.064,0.176608
13741,159384,299.14,298.063,0.228784
13753,159523.2,299.147,298.061,0.298123
13765,159662.4,299.152,298.061,0.353389
13777,159801.6,299.156,298.06,0.384626
13789,159940.8,299.151,298.0611,0.388573
13801,160080,299.143,298.06,0.385312
13813,160219.2,299.14,298.059,0.391148
13825,160358.4,299.141,298.057,0.415349
13837,160497.6,299.146,298.057,0.467869
13849,160636.8,299.151,298.055,0.487092
13861,160776,299.157,298.055,0.49842
13873,160915.2,299.157,298.055,0.495674
13885,161054.4,299.155,298.056,0.477996
13897,161193.6,299.154,298.056,0.451736
13909,161332.8,299.156,298.056,0.434572
13921,161472,299.161,298.058,0.415349
13933,161611.2,299.165,298.059,0.39132
13945,161750.4,299.166,298.061,0.354933
13957,161889.6,299.165,298.063,0.310137
13969,162028.8,299.156,298.067,0.26002
13981,162168,299.143,298.068,0.230156
13993,162307.2,299.138,298.068,0.250065
14005,162446.4,299.136,298.066,0.304816
14017,162585.6,299.142,298.066,0.377244
14029,162724.8,299.144,298.066,0.437486
14041,162864,299.152,298.066,0.48211
14053,163003.2,299.157,298.066,0.503735
14065,163142.4,299.158,298.067,0.502362
14077,163281.6,299.156,298.068,0.505622
14089,163420.8,299.155,298.069,0.473012
14101,163560,299.155,298.071,0.461169
14113,163699.2,299.149,298.072,0.447095
14125,163838.4,299.141,298.071,0.433708
14137,163977.6,299.14,298.071,0.464945
14149,164116.8,299.142,298.07,0.498584
14161,164256,299.146,298.07,0.539261
14173,164395.2,299.15,298.07,0.556595
14185,164534.4,299.156,298.07,0.592809
14197,164673.6,299.157,298.07,0.582168
14209,164812.8,299.157,298.072,0.563803
14221,164952,299.157,298.072,0.531879
14233,165091.2,299.159,298.074,0.504075
14245,165230.4,299.161,298.075,0.458421
14257,165369.6,299.162,298.077,0.428042
14269,165508.8,299.157,298.08,0.40161
14281,165648,299.154,298.081,0.378611
14293,165787.2,299.151,298.083,0.368484
14305,165926.4,299.154,298.084,0.382729
14317,166065.6,299.157,298.085,0.382214
14329,166204.8,299.159,298.087,0.3829
14341,166344,299.158,298.089,0.377578
14353,166483.2,299.154,298.091,0.374488
14365,166622.4,299.152,298.092,0.388218
14377,166761.6,299.152,298.094,0.367107
14389,166900.8,299.156,298.095,0.368651
14401,167040,299.161,298.097,0.36539
14413,167179.2,299.163,298.101,0.371567
14425,167318.4,299.163,298.103,0.353718
14437,167457.6,299.16,298.105,0.318019
14449,167596.8,299.159,298.108,0.292446
14461,167736,299.155,298.11,0.287468
14473,167875.2,299.153,298.113,0.271678
14485,168014.4,299.15,298.115,0.277513
14497,168153.6,299.151,298.116,0.299995
14509,168292.8,299.151,298.119,0.313553
14521,168432,299.147,298.121,0.318186
14533,168571.2,299.14,298.121,0.342728
14545,168710.4,299.135,298.121,0.388722
14557,168849.6,299.137,298.12,0.457714
14569,168988.8,299.141,298.119,0.50697
14581,169128,299.147,298.119,0.561889
14593,169267.2,299.153,298.119,0.606682
14605,169406.4,299.155,298.12,0.615949
14617,169545.6,299.154,298.12,0.607711
14629,169684.8,299.153,298.12,0.599816
14641,169824,299.151,298.121,0.583683
14653,169963.2,299.153,298.122,0.573729
14665,170102.4,299.156,298.124,0.544896
14677,170241.6,299.16,298.124,0.529106
14689,170380.8,299.163,298.127,0.51057
14701,170520,299.163,298.129,0.474872
14713,170659.2,299.162,298.132,0.436771
14725,170798.4,299.159,298.134,0.395067
14737,170937.6,299.155,298.136,0.355594
14749,171076.8,299.152,298.138,0.342893
14761,171216,299.152,298.14,0.346668
14773,171355.2,299.154,298.142,0.354562
14785,171494.4,299.152,298.143,0.361083
14797,171633.6,299.151,298.145,0.37464
14809,171772.8,299.151,298.147,0.369663
14821,171912,299.153,298.149,0.386824
14833,172051.2,299.153,298.15,0.392487
14845,172190.4,299.156,298.152,0.407073
14857,172329.6,299.159,298.153,0.413251
14869,172468.8,299.162,298.156,0.404154
14881,172608,299.162,298.159,0.382186
14893,172747.2,299.163,298.162,0.349921
14897,172793.6,299.162,298.162,0.33808