File: z_unorganized_archive/i_data/0.25Kmin/H2O-NH3_4.3987g.csv
NH3-H2O 10wt%  Specific Heat - Large HF,,,,
Creation Date : 7/20/2022 2:35:24 PM,,,,
User : admin,,,,
,,,,
HeatFlow :,,,,
 Initial Mass : 4398.7 mg,,,,
 Molar Mass : 17 g/mol,,,,
,,,,
Index,Time(s),Furnace Temperature(K),Sample Temperature(K),HeatFlow(mW)
1,0,299.111,299.144,79.0395
13,139.2,299.111,299.145,50.0875
25,278.4,299.109,299.145,31.6319
37,417.6,299.106,299.145,19.8867
49,556.8,299.097,299.1444,12.4226
61,696,299.079,299.143,7.690763
73,835.2,299.048,299.14,4.713019
85,974.4,298.998,299.136,2.87199
97,1113.6,298.924,299.127,1.782943
109,1252.8,298.819,299.114,1.208589
121,1392,298.679,299.096,1.019664
133,1531.2,298.503,299.068,1.134742
145,1670.4,298.288,299.032,1.520073
157,1809.6,298.033,298.985,2.153921
169,1948.8,297.738,298.924,3.031203
181,2088,297.403,298.851,4.142905
193,2227.2,297.027,298.76,5.484855
205,2366.4,296.612,298.651,7.047923
217,2505.6,296.157,298.525,8.837744
229,2644.8,295.654,298.379,10.8322
241,2784,295.098,298.21,13.0349
253,2923.2,294.479,298.018,15.4413
265,3062.4,293.797,297.8,18.0771
277,3201.6,293.052,297.554,20.9574
289,3340.8,292.244,297.278,24.0964
301,3480,291.384,296.969,27.4991
313,3619.2,290.477,296.628,31.1441
325,3758.4,289.533,296.253,35.0127
337,3897.6,288.563,295.846,39.0834
349,4036.8,287.572,295.406,43.2869
361,4176,286.565,294.934,47.5927
373,4315.2,285.552,294.433,51.9462
385,4454.4,284.534,293.904,56.2672
397,4593.6,283.514,293.349,60.4887
409,4732.8,282.495,292.771,64.5263
421,4872,281.476,292.172,68.3137
433,5011.2,280.46,291.549,71.9231
445,5150.4,279.449,290.901,75.4583
457,5289.6,278.44,290.232,78.8937
469,5428.8,277.437,289.543,82.2009
481,5568,276.443,288.837,85.35248
493,5707.2,275.454,288.116,88.3171
505,5846.4,274.4741,287.38,91.0683
517,5985.6,273.506,286.632,93.6025
529,6124.8,272.551,285.873,95.91394
541,6264,271.606,285.103,98.0018
553,6403.2,270.673,284.326,99.8877
565,6542.4,269.753,283.541,101.572
577,6681.6,268.84,282.749,103.065
589,6820.8,267.938,281.953,104.37
601,6960,267.047,281.152,105.513
613,7099.2,266.1648,280.347,106.555
625,7238.4,265.292,279.539,107.42
637,7377.6,264.426,278.729,108.173
649,7516.8,263.569,277.917,108.75
661,7656,262.719,277.105,109.235
673,7795.2,261.876,276.291,109.617
685,7934.4,261.041,275.479,109.92
697,8073.6,260.211,274.666,110.184
709,8212.8,259.387,273.853,110.295
721,8352,258.571,273.041,110.463
733,8491.2,257.761,272.23,110.495
745,8630.4,256.956,271.421,110.386
757,8769.6,256.158,270.613,110.286
769,8908.8,255.366,269.808,110.062
781,9048,254.581,269.004,109.779
793,9187.2,253.801,268.204,109.557
805,9326.4,253.03,267.405,109.406
817,9465.6,252.264,266.609,109.071
829,9604.8,251.503,265.816,108.724
841,9744,250.748,265.027,108.402
853,9883.2,249.997,264.241,107.835
865,10022.4,249.248,263.457,107.329
877,10161.6,248.504,262.678,107.138
889,10300.8,247.765,261.901,106.72
901,10440,247.032,261.128,106.081
913,10579.2,246.305,260.357,105.5822
925,10718.4,245.584,259.591,105.289
937,10857.6,244.87,258.829,104.842
949,10996.8,244.16,258.071,104.278
961,11136,243.454,257.315,103.755
973,11275.2,242.753,256.564,103.15
985,11414.4,242.055,255.817,102.54
997,11553.6,241.358,255.074,102.077
1009,11692.8,240.665,254.334,101.717
1021,11832,239.977,253.598,101.126
1033,11971.2,239.293,252.866,100.579
1045,12110.4,238.614,252.138,99.7033
1057,12249.6,237.94,251.413,99.3926
1069,12388.8,237.272,250.692,98.6623
1081,12528,236.606,249.975,98.0632
1093,12667.2,235.945,249.262,97.436
1105,12806.4,235.287,248.553,96.7048
1117,12945.6,234.628,247.847,96.19262
1129,13084.8,233.971,247.145,95.6125
1141,13224,233.318,246.446,94.9341
1153,13363.2,232.667,245.752,94.7081
1165,13502.4,232.018,245.06,94.0891
1177,13641.6,231.375,244.374,715.33
1189,13780.8,230.737,243.71,738.371
1201,13920,230.105,243.042,630.372
1213,14059.2,229.477,242.374,513.944
1225,14198.4,228.853,241.705,414.213
1237,14337.6,228.234,241.037,335.479
1249,14476.8,227.62,240.373,275.904
1261,14616,227.01,239.711,232.116
1273,14755.2,226.406,239.051,199.68
1285,14894.4,225.805,238.394,175.691
1297,15033.6,225.207,237.741,158.422
1309,15172.8,224.613,237.092,145.291
1321,15312,224.02,236.447,135.369
1333,15451.2,223.426,235.805,127.334
1345,15590.4,222.835,235.165,120.965
1357,15729.6,222.245,234.5282,115.474
1369,15868.8,221.656,233.896,111.128
1381,16008,221.07,233.266,107.327
1393,16147.2,220.487,232.639,104.546
1405,16286.4,219.908,232.015,101.299
1417,16425.6,219.333,231.395,98.2104
1429,16564.8,218.763,230.778,96.0959
1441,16704,218.197,230.163,93.8285
1453,16843.2,217.631,229.553,91.5078
1465,16982.4,217.069,228.945,89.3397
1477,17121.6,216.511,228.34,87.1753
1489,17260.8,215.955,227.738,85.0372
1501,17400,215.403,227.14,83.40768
1513,17539.2,214.855,226.544,81.9751
1525,17678.4,214.311,225.952,80.0184
1537,17817.6,213.769,225.363,78.01
1549,17956.8,213.229,224.777,76.1001
1561,18096,212.692,224.195,75.112
1573,18235.2,212.157,223.615,73.8992
1585,18374.4,211.624,223.039,72.2367
1597,18513.6,211.093,222.464,70.5969
1609,18652.8,210.567,221.893,69.0363
1621,18792,210.041,221.324,68.2411
1633,18931.2,209.518,220.76,67.0229
1645,19070.4,208.998,220.197,65.7051
1657,19209.6,208.481,219.637,64.4853
1669,19348.8,207.966,219.081,63.5487
1681,19488,207.453,218.526,62.7632
1693,19627.2,206.943,217.975,61.603
1705,19766.4,206.437,217.426,60.3616
1717,19905.6,205.934,216.881,59.30663
1729,20044.8,205.436,216.3385,58.2374
1741,20184,204.94,215.798,57.3471
1753,20323.2,204.447,215.261,56.6274
1765,20462.4,203.958,214.727,55.5164
1777,20601.6,203.473,214.196,54.8128
1789,20740.8,202.991,213.668,54.2943
1801,20880,202.511,213.142,53.2761
1813,21019.2,202.033,212.619,52.3196
1825,21158.4,201.556,212.099,51.4709
1837,21297.6,201.081,211.582,50.6678
1849,21436.8,200.609,211.067,50.0728
1861,21576,200.136,210.555,49.5131
1873,21715.2,199.668,210.045,48.9688
1885,21854.4,199.201,209.538,48.764
1897,21993.6,198.735,209.034,48.0357
1909,22132.8,198.272,208.532,46.9642
1921,22272,197.811,208.032,46.3451
1933,22411.2,197.351,207.534,46.1631
1945,22550.4,196.894,207.04,45.3241
1957,22689.6,196.44,206.547,44.8919
1969,22828.8,195.989,206.058,44.3693
1981,22968,195.54,205.571,43.5764
1993,23107.2,195.095,205.085,43.5186
2005,23246.4,194.653,204.603,43.4109
2017,23385.6,194.214,204.123,42.9082
2029,23524.8,193.778,203.644,42.3518
2041,23664,193.346,203.17,41.90335
2053,23803.2,192.916,202.698,41.3137
2065,23942.4,192.489,202.228,40.555
2077,24081.6,192.063,201.76,39.9871
2089,24220.8,191.637,201.295,39.4733
2101,24360,191.215,200.832,39.2432
2113,24499.2,190.794,200.372,39.0081
2125,24638.4,190.376,199.914,38.6803
2137,24777.6,189.96,199.459,37.6705
2149,24916.8,189.546,199.006,37.0678
2161,25056,189.132,198.555,36.7835
2173,25195.2,188.721,198.106,36.1126
2185,25334.4,188.312,197.66,35.8794
2197,25473.6,187.905,197.216,35.4611
2209,25612.8,187.5,196.774,35.24299
2221,25752,187.098,196.334,35.3007
2233,25891.2,186.697,195.897,35.0593
2245,26030.4,186.298,195.461,34.5374
2257,26169.6,185.9,195.028,34.0178
2269,26308.8,185.504,194.597,33.9761
2281,26448,185.109,194.167,33.553
2293,26587.2,184.717,193.74,33.1777
2305,26726.4,184.327,193.316,32.8303
2317,26865.6,183.941,192.893,32.1913
2329,27004.8,183.558,192.473,32.2921
2341,27144,183.1743,192.055,31.7331
2353,27283.2,182.789,191.637,31.4009
2365,27422.4,182.401,191.222,30.952
2377,27561.6,182.014,190.809,30.767
2389,27700.8,181.631,190.397,30.5791
2401,27840,181.25,189.987,30.2734
2413,27979.2,180.873,189.579,29.9877
2425,28118.4,180.498,189.174,29.98158
2437,28257.6,180.125,188.768,29.6425
2449,28396.8,179.752,188.366,29.51896
2461,28536,179.379,187.965,29.2818
2473,28675.2,179.005,187.565,29.1851
2485,28814.4,178.634,187.168,28.9627
2497,28953.6,178.266,186.772,28.8401
2509,29092.8,177.903,186.377,28.5409
2521,29232,177.541,185.985,27.939
2533,29371.2,177.184,185.594,27.7686
2545,29510.4,176.831,185.205,27.8887
2557,29649.6,176.481,184.818,27.64631
2569,29788.8,176.13,184.433,27.1315
2581,29928,175.777,184.05,26.72094
2593,30067.2,175.424,183.669,26.4052
2605,30206.4,175.072,183.289,26.1865
2617,30345.6,174.721,182.911,26.378
2629,30484.8,174.368,182.534,26.1108
2641,30624,174.011,182.159,26.0859
2653,30763.2,173.652,181.784,26.0269
2665,30902.4,173.293,181.411,25.7153
2677,31041.6,172.939,181.038,25.2754
2689,31180.8,172.589,180.667,24.9348
2701,31320,172.238,180.297,24.7525
2713,31459.2,171.883,179.928,24.6765
2725,31598.4,171.526,179.56,24.4874
2737,31737.6,171.169,179.193,24.8816
2749,31876.8,170.813,178.826,25.1013
2761,32016,170.463,178.46,24.894
2773,32155.2,170.116,178.095,24.5577
2785,32294.4,169.778,177.732,24.20078
2797,32433.6,169.449,177.37,23.8787
2809,32572.8,169.126,177.01,23.8312
2821,32712,168.809,176.652,23.88408
2833,32851.2,168.499,176.297,23.74922
2845,32990.4,168.193,175.944,23.373
2857,33129.6,167.889,175.594,23.0437
2869,33268.8,167.587,175.245,22.9687
2881,33408,167.285,174.9,22.6661
2893,33547.2,166.985,174.556,22.5116
2905,33686.4,166.684,174.215,22.1294
2917,33825.6,166.38,173.875,22.2847
2929,33964.8,166.067,173.538,22.2854
2941,34104,165.748,173.2,21.9616
2953,34243.2,165.426,172.865,22.0706
2965,34382.4,165.103,172.529,22.1279
2977,34521.6,164.779,172.195,21.92209
2989,34660.8,164.456,171.861,21.7892
3001,34800,164.137,171.5278,21.822
3013,34939.2,163.824,171.196,21.34846
3025,35078.4,163.52,170.866,21.2723
3037,35217.6,163.222,170.537,20.91789
3049,35356.8,162.929,170.21,20.4582
3061,35496,162.64,169.884,20.8982
3073,35635.2,162.355,169.561,20.7553
3085,35774.4,162.074,169.239,20.8369
3097,35913.6,161.795,168.919,20.3416
3109,36052.8,161.52,168.602,20.1134
3121,36192,161.246,168.287,19.9509
3133,36331.2,160.973,167.974,19.6114
3145,36470.4,160.702,167.663,19.2754
3157,36609.6,160.432,167.354,19.2284
3169,36748.8,160.163,167.047,19.0847
3181,36888,159.894,166.741,18.8568
3193,37027.2,159.626,166.437,18.8106
3205,37166.4,159.36,166.136,18.4004
3217,37305.6,159.094,165.835,18.1916
3229,37444.8,158.829,165.538,18.1177
3241,37584,158.563,165.24,18.0084
3253,37723.2,158.296,164.945,18.0629
3265,37862.4,158.031,164.652,18.0211
3277,38001.6,157.767,164.36,17.9966
3289,38140.8,157.503,164.069,17.8237
3301,38280,157.241,163.779,17.9112
3313,38419.2,156.978,163.491,17.76671
3325,38558.4,156.717,163.204,17.8039
3337,38697.6,156.458,162.918,17.5175
3349,38836.8,156.201,162.634,17.2867
3361,38976,155.946,162.351,17.3542
3373,39115.2,155.694,162.071,17.17051
3385,39254.4,155.444,161.791,16.9492
3397,39393.6,155.195,161.512,16.8533
3409,39532.8,154.947,161.235,16.7199
3421,39672,154.7,160.96,16.9361
3433,39811.2,154.455,160.686,16.8556
3445,39950.4,154.21,160.412,16.8286
3457,40089.6,153.966,160.141,16.4591
3469,40228.8,153.719,159.871,16.3189
3481,40368,153.47,159.602,16.4164
3493,40507.2,153.219,159.334,16.2157
3505,40646.4,152.967,159.067,16.2787
3517,40785.6,152.712,158.801,16.1081
3529,40924.8,152.455,158.535,15.7863
3541,41064,152.195,158.269,15.4626
3553,41203.2,151.932,158.004,15.485
3565,41342.4,151.664,157.739,15.6767
3577,41481.6,151.393,157.474,15.8432
3589,41620.8,151.118,157.208,15.7888
3601,41760,150.84,156.942,15.848
3613,41899.2,150.558,156.6761,15.849
3625,42038.4,150.277,156.409,15.4406
3637,42177.6,149.993,156.142,15.3614
3649,42316.8,149.705,155.874,15.41344
3661,42456,149.416,155.605,15.49926
3673,42595.2,149.128,155.336,15.5386
3685,42734.4,148.846,155.066,15.5355
3697,42873.6,148.572,154.795,15.5977
3709,43012.8,148.308,154.525,15.8958
3721,43152,148.055,154.256,15.8718
3733,43291.2,147.814,153.987,15.93938
3745,43430.4,147.582,153.72,15.6663
3757,43569.6,147.359,153.455,15.2583
3769,43708.8,147.142,153.192,15.267
3781,43848,146.925,152.931,15.2195
3793,43987.2,146.705,152.673,15.23227
3805,44126.4,146.484,152.415,14.9066
3817,44265.6,146.265,152.16,14.7002
3829,44404.8,146.051,151.906,14.672
3841,44544,145.843,151.6546,14.4513
3853,44683.2,145.639,151.405,14.4288
3865,44822.4,145.439,151.157,14.5079
3877,44961.6,145.238,150.912,14.29859
3889,45100.8,145.037,150.669,14.026
3901,45240,144.84,150.427,13.91
3913,45379.2,144.641,150.188,13.8729
3925,45518.4,144.433,149.95,13.8113
3937,45657.6,144.219,149.714,13.7754
3949,45796.8,144,149.478,13.5568
3961,45936,143.778,149.243,13.3231
3973,46075.2,143.556,149.009,13.19796
3985,46214.4,143.333,148.775,13.188
3997,46353.6,143.11,148.542,12.9692
4009,46492.8,142.885,148.309,13.0386
4021,46632,142.654,148.076,13.0902
4033,46771.2,142.417,147.843,13.1589
4045,46910.4,142.178,147.611,13.0756
4057,47049.6,141.941,147.378,13.1902
4069,47188.8,141.707,147.145,13.0087
4081,47328,141.478,146.913,12.6612
4093,47467.2,141.249,146.68,12.677
4105,47606.4,141.021,146.448,12.8565
4117,47745.6,140.791,146.217,12.921
4129,47884.8,140.558,145.984,12.8695
4141,48024,140.324,145.752,12.7222
4153,48163.2,140.094,145.521,12.7959
4165,48302.4,139.869,145.288,12.5638
4177,48441.6,139.646,145.058,12.782
4189,48580.8,139.424,144.827,12.7202
4201,48720,139.203,144.596,12.6936
4213,48859.2,138.981,144.366,12.6171
4225,48998.4,138.757,144.137,12.6089
4237,49137.6,138.529,143.908,12.5517
4249,49276.8,138.305,143.679,12.4659
4261,49416,138.084,143.45,12.39593
4273,49555.2,137.87,143.221,12.2923
4285,49694.4,137.662,142.994,12.2798
4297,49833.6,137.455,142.768,12.2361
4309,49972.8,137.246,142.542,12.2192
4321,50112,137.036,142.318,12.1608
4333,50251.2,136.822,142.093,12.2304
4345,50390.4,136.613,141.869,12.2052
4357,50529.6,136.406,141.646,12.12
4369,50668.8,136.197,141.423,12.0341
4381,50808,135.988,141.202,11.828
4393,50947.2,135.778,140.98,11.6665
4405,51086.4,135.571,140.76,11.7399
4417,51225.6,135.365,140.541,11.917
4429,51364.8,135.159,140.321,11.9873
4441,51504,134.951,140.103,11.6549
4453,51643.2,134.742,139.885,11.564
4465,51782.4,134.537,139.667,11.5148
4477,51921.6,134.339,139.45,11.5649
4489,52060.8,134.148,139.234,11.6293
4501,52200,133.956,139.02,11.449
4513,52339.2,133.764,138.806,11.2522
4525,52478.4,133.571,138.593,11.2601
4537,52617.6,133.382,138.381,11.2139
4549,52756.8,133.197,138.17,11.12759
4561,52896,133.015,137.961,11.2759
4573,53035.2,132.832,137.753,11.1167
4585,53174.4,132.648,137.546,11.1889
4597,53313.6,132.463,137.34,10.99066
4609,53452.8,132.28,137.134,10.7896
4621,53592,132.102,136.931,10.6303
4633,53731.2,131.932,136.728,10.6561
4645,53870.4,131.769,136.526,10.5953
4657,54009.6,131.61,136.328,10.3978
4669,54148.8,131.447,136.129,10.331
4681,54288,131.283,135.9336,10.1908
4693,54427.2,131.119,135.738,10.1075
4705,54566.4,130.954,135.544,10.1196
4717,54705.6,130.784,135.352,10.0248
4729,54844.8,130.608,135.16,9.988739
4741,54984,130.429,134.969,9.83311
4753,55123.2,130.25,134.779,9.654589
4765,55262.4,130.075,134.589,9.797351
4777,55401.6,129.906,134.4,9.930261
4789,55540.8,129.747,134.212,9.912361
4801,55680,129.592,134.026,9.688702
4813,55819.2,129.437,133.841,9.555843
4825,55958.4,129.277,133.657,9.48706
4837,56097.6,129.114,133.474,9.388426
4849,56236.8,128.952,133.292,9.33584
4861,56376,128.793,133.111,9.291694
4873,56515.2,128.639,132.931,9.193248
4885,56654.4,128.489,132.752,9.077075
4897,56793.6,128.34,132.574,8.982637
4909,56932.8,128.192,132.398,8.945321
4921,57072,128.045,132.222,9.014814
4933,57211.2,127.899,132.049,8.930108
4945,57350.4,127.752,131.876,8.803096
4957,57489.6,127.602,131.705,8.627684
4969,57628.8,127.445,131.533,8.538484
4981,57768,127.281,131.363,8.570891
4993,57907.2,127.117,131.194,8.533688
5005,58046.4,126.956,131.024,8.461177
5017,58185.6,126.794,130.855,8.38441
5029,58324.8,126.629,130.687,8.359382
5041,58464,126.461,130.517,8.283796
5053,58603.2,126.293,130.347,8.33601
5065,58742.4,126.128,130.179,8.362421
5077,58881.6,125.969,130.01,8.293945
5089,59020.8,125.82,129.843,8.252842
5101,59160,125.679,129.676,8.304071
5113,59299.2,125.541,129.51,8.333202
5125,59438.4,125.4018,129.346,8.119603
5137,59577.6,125.259,129.182,8.089565
5149,59716.8,125.114,129.019,8.003195
5161,59856,124.97,128.857,7.958348
5173,59995.2,124.832,128.696,7.823731
5185,60134.4,124.699,128.537,7.679185
5197,60273.6,124.572,128.378,7.652236
5209,60412.8,124.448,128.221,7.678096
5221,60552,124.321,128.066,7.680489
5233,60691.2,124.186,127.911,7.637564
5245,60830.4,124.044,127.757,7.594533
5257,60969.6,123.895,127.603,7.474758
5269,61108.8,123.743,127.449,7.426775
5281,61248,123.594,127.296,7.381759
5293,61387.2,123.45,127.143,7.421284
5305,61526.4,123.314,126.99,7.395577
5317,61665.6,123.188,126.839,7.305569
5329,61804.8,123.069,126.689,7.260715
5341,61944,122.953,126.539,7.214367
5353,62083.2,122.841,126.392,7.153588
5365,62222.4,122.728,126.247,7.032676
5377,62361.6,122.609,126.102,6.907336
5389,62500.8,122.48,125.957,6.841586
5401,62640,122.343,125.8142,6.816481
5413,62779.2,122.2,125.671,6.8328
5425,62918.4,122.057,125.528,6.781059
5437,63057.6,121.917,125.385,6.693869
5449,63196.8,121.784,125.242,6.686818
5461,63336,121.66,125.1,6.626062
5473,63475.2,121.545,124.959,6.592159
5485,63614.4,121.439,124.819,6.564354
5497,63753.6,121.34,124.68,6.477575
5509,63892.8,121.242,124.545,6.436489
5521,64032,121.142,124.41,6.418453
5533,64171.2,121.031,124.276,6.339073
5545,64310.4,120.912,124.142,6.241448
5557,64449.6,120.787,124.01,6.247142
5569,64588.8,120.659,123.877,6.133406
5581,64728,120.533,123.745,6.138458
5593,64867.2,120.411,123.614,6.032334
5605,65006.4,120.296,123.483,5.960954
5617,65145.6,120.189,123.352,6.032314
5629,65284.8,120.084,123.223,5.949057
5641,65424,119.9802,123.095,5.904648
5653,65563.2,119.878,122.968,5.817695
5665,65702.4,119.775,122.842,5.741111
5677,65841.6,119.669,122.717,5.708571
5689,65980.8,119.56,122.593,5.713317
5701,66120,119.448,122.469,5.646695
5713,66259.2,119.335,122.346,5.589952
5725,66398.4,119.219,122.223,5.541953
5737,66537.6,119.098,122.1,5.510795
5749,66676.8,118.972,121.977,5.50967
5761,66816,118.845,121.854,5.502516
5773,66955.2,118.722,121.731,5.541574
5785,67094.4,118.603,121.608,5.515482
5797,67233.6,118.487,121.486,5.508322
5809,67372.8,118.372,121.363,5.45311
5821,67512,118.259,121.241,5.401248
5833,67651.2,118.145,121.12,5.353339
5845,67790.4,118.028,120.998,5.375689
5857,67929.6,117.912,120.877,5.351913
5869,68068.8,117.797,120.756,5.310183
5881,68208,117.684,120.635,5.333406
5893,68347.2,117.568,120.515,5.300544
5905,68486.4,117.447,120.394,5.247684
5917,68625.6,117.324,120.274,5.266856
5929,68764.8,117.204,120.153,5.216491
5941,68904,117.09,120.033,5.26556
5953,69043.2,116.982,119.912,5.254602
5965,69182.4,116.881,119.794,5.224657
5977,69321.6,116.783,119.676,5.234241
5989,69460.8,116.688,119.558,5.166682
6001,69600,116.591,119.442,5.098702
6013,69739.2,116.494,119.326,5.07985
6025,69878.4,116.397,119.211,5.023609
6037,70017.6,116.298,119.097,5.570068
6049,70156.8,116.197,118.983,5.298763
6061,70296,116.097,118.87,5.115608
6073,70435.2,116,118.759,5.03893
6085,70574.4,115.908,118.646,4.92676
6097,70713.6,115.822,118.535,4.814633
6109,70852.8,115.74,118.426,4.731646
6121,70992,115.661,118.318,4.64174
6133,71131.2,115.587,118.211,4.568687
6145,71270.4,115.519,118.106,4.5008
6157,71409.6,115.453,118.002,4.452752
6169,71548.8,115.38,117.9,4.390763
6181,71688,115.299,117.798,4.325162
6193,71827.2,115.212,117.698,4.264424
6205,71966.4,115.122,117.597,4.242538
6217,72105.6,115.029,117.497,4.158648
6229,72244.8,114.934,117.398,4.103854
6241,72384,114.834,117.298,4.08033
6253,72523.2,114.732,117.198,4.04818
6265,72662.4,114.632,117.099,4.015685
6277,72801.6,114.53,116.999,4.001822
6289,72940.8,114.422,116.899,4.011051
6301,73080,114.311,116.799,4.004294
6313,73219.2,114.197,116.698,4.00466
6325,73358.4,114.086,116.597,4.023451
6337,73497.6,113.98,116.495,4.030388
6349,73636.8,113.882,116.394,3.9981
6361,73776,113.794,116.293,4.00948
6373,73915.2,113.713,116.193,4.016099
6385,74054.4,113.639,116.093,3.964933
6397,74193.6,113.565,115.995,3.916911
6409,74332.8,113.491,115.897,3.874496
6421,74472,113.418,115.801,3.806031
6433,74611.2,113.341,115.705,3.776871
6445,74750.4,113.259,115.61,3.760514
6457,74889.6,113.171,115.516,3.724963
6469,75028.8,113.078,115.422,3.684311
6481,75168,112.985,115.328,3.642376
6493,75307.2,112.896,115.233,3.635773
6505,75446.4,112.812,115.139,3.628837
6517,75585.6,112.726,115.046,3.585293
6529,75724.8,112.637,114.953,3.557567
6541,75864,112.546,114.86,3.550871
6553,76003.2,112.454,114.767,3.539029
6565,76142.4,112.366,114.674,3.510339
6577,76281.6,112.279,114.581,3.48311
6589,76420.8,112.191,114.489,3.472109
6601,76560,112.102,114.396,3.477675
6613,76699.2,112.014,114.304,3.443412
6625,76838.4,111.932,114.213,3.422679
6637,76977.6,111.855,114.121,3.408881
6649,77116.8,111.785,114.031,3.375687
6661,77256,111.722,113.941,3.340628
6673,77395.2,111.664,113.853,3.306681
6685,77534.4,111.611,113.766,3.262993
6697,77673.6,111.561,113.682,3.220418
6709,77812.8,111.517,113.598,3.142618
6721,77952,111.478,113.516,3.077716
6733,78091.2,111.438,113.436,3.002391
6745,78230.4,111.392,113.357,2.94395
6757,78369.6,111.337,113.28,2.880548
6769,78508.8,111.276,113.203,2.82802
6781,78648,111.212,113.128,2.787572
6793,78787.2,111.146,113.052,2.746779
6805,78926.4,111.084,112.977,2.727845
6817,79065.6,111.026,112.903,2.688173
6829,79204.8,110.975,112.83,2.655444
6841,79344,110.928,112.757,2.624803
6853,79483.2,110.884,112.685,2.585879
6865,79622.4,110.841,112.615,2.556347
6877,79761.6,110.8,112.547,2.52157
6889,79900.8,110.766,112.479,2.468725
6901,80040,110.738,112.413,2.411514
6913,80179.2,110.713,112.349,2.362769
6925,80318.4,110.685,112.286,2.312744
6937,80457.6,110.65,112.224,2.259907
6949,80596.8,110.611,112.164,2.202405
6961,80736,110.569,112.104,2.142391
6973,80875.2,110.529,112.046,2.082313
6985,81014.4,110.496,111.988,2.036885
6997,81153.6,110.469,111.931,1.982202
7009,81292.8,110.442,111.8758,1.928996
7021,81432,110.409,111.821,1.877267
7033,81571.2,110.369,111.767,1.828258
7045,81710.4,110.324,111.714,1.774581
7057,81849.6,110.276,111.662,1.723629
7069,81988.8,110.227,111.609,1.692624
7081,82128,110.181,111.556,1.680045
7093,82267.2,110.139,111.504,1.661915
7105,82406.4,110.107,111.452,1.644387
7117,82545.6,110.082,111.402,1.617584
7129,82684.8,110.056,111.352,1.581516
7141,82824,110.024,111.304,1.543557
7153,82963.2,109.986,111.256,1.512045
7165,83102.4,109.944,111.208,1.48544
7177,83241.6,109.9,111.16,1.471462
7189,83380.8,109.859,111.113,1.453148
7201,83520,109.824,111.066,1.433273
7213,83659.2,109.797,111.02,1.418627
7225,83798.4,109.772,110.974,1.391301
7237,83937.6,109.745,110.929,1.359937
7249,84076.8,109.718,110.886,1.327298
7261,84216,109.693,110.843,1.292475
7273,84355.2,109.671,110.801,1.264734
7285,84494.4,109.6518,110.76,1.229542
7297,84633.6,109.634,110.719,1.194633
7309,84772.8,109.615,110.68,1.168049
7321,84912,109.598,110.642,1.120704
7333,85051.2,109.582,110.604,1.086327
7345,85190.4,109.567,110.567,1.053476
7357,85329.6,109.548,110.532,1.016572
7369,85468.8,109.521,110.496,0.989874
7381,85608,109.488,110.461,0.959751
7393,85747.2,109.451,110.426,0.934568
7405,85886.4,109.413,110.391,0.921161
7417,86025.6,109.382,110.356,0.913954
7429,86164.8,109.359,110.321,0.901156
7441,86304,109.341,110.287,0.889278
7453,86443.2,109.326,110.253,0.882979
7465,86582.4,109.316,110.221,0.84903
7477,86721.6,109.308,110.188,0.815684
7489,86860.8,109.298,110.159,0.786038
7501,87000,109.281,110.129,0.753891
7513,87139.2,109.255,110.099,0.728879
7525,87278.4,109.22,110.07,0.710074
7537,87417.6,109.178,110.04,0.698416
7549,87556.8,109.135,110.009,0.69515
7561,87696,109.093,109.977,0.701847
7573,87835.2,109.06,109.946,0.712277
7585,87974.4,109.04,109.915,0.712439
7597,88113.6,109.031,109.885,0.718206
7609,88252.8,109.03,109.856,0.693137
7621,88392,109.032,109.828,0.666807
7633,88531.2,109.035,109.801,0.632674
7645,88670.4,109.036,109.775,0.590109
7657,88809.6,109.033,109.751,0.553445
7669,88948.8,109.028,109.727,0.508036
7681,89088,109.023,109.704,0.469781
7693,89227.2,109.021,109.682,0.430883
7705,89366.4,109.023,109.661,0.38823
7717,89505.6,109.026,109.641,0.364898
7729,89644.8,109.03,109.621,0.320969
7741,89784,109.034,109.603,0.289816
7753,89923.2,109.037,109.586,0.254596
7765,90062.4,109.038,109.569,0.217806
7777,90201.6,109.036,109.554,0.176949
7789,90340.8,109.034,109.538,0.149816
7801,90480,109.033,109.524,0.123923
7813,90619.2,109.033,109.509,0.096153
7825,90758.4,109.033,109.496,0.069936
7837,90897.6,109.033,109.483,0.042153
7849,91036.8,109.033,109.471,0.016863
7861,91176,109.033,109.458,-0.001874
7873,91315.2,109.03,109.447,-0.010931
7885,91454.4,109.025,109.436,-0.028737
7897,91593.6,109.022,109.425,-0.054979
7909,91732.8,109.021,109.415,-0.066542
7921,91872,109.02,109.405,-0.07342
7933,92011.2,109.019,109.395,-0.08936
7945,92150.4,109.019,109.385,-0.10624
7957,92289.6,109.019,109.377,-0.119371
7969,92428.8,109.018,109.368,-0.136567
7981,92568,109.016,109.36,-0.154703
7993,92707.2,109.013,109.351,-0.164401
8005,92846.4,109.01,109.343,-0.173789
8017,92985.6,109.006,109.336,-0.19224
8029,93124.8,109.002,109.328,-0.209132
8041,93264,108.997,109.321,-0.210707
8053,93403.2,108.992,109.313,-0.205716
8065,93542.4,108.986,109.307,-0.216669
8077,93681.6,108.979,109.299,-0.225436
8089,93820.8,108.973,109.292,-0.228887
8101,93960,108.965,109.285,-0.231401
8113,94099.2,108.956,109.277,-0.224221
8125,94238.4,109.013,109.271,-0.233928
8137,94377.6,109.513,109.271,-0.33025
8149,94516.8,110.352,109.296,-0.645681
8161,94656,111.199,109.353,-1.222683
8173,94795.2,111.952,109.439,-2.018697
8185,94934.4,112.62,109.552,-2.937646
8197,95073.6,113.235,109.688,-3.88901
8209,95212.8,113.822,109.844,-4.802555
8221,95352,114.399,110.018,-5.651339
8233,95491.2,114.975,110.209,-6.454586
8245,95630.4,115.554,110.418,-7.206311
8257,95769.6,116.136,110.642,-7.91025
8269,95908.8,116.718,110.88,-8.580369
8281,96048,117.3,111.134,-9.225604
8293,96187.2,117.88,111.401,-9.846834
8305,96326.4,118.4607,111.683,-10.4364
8317,96465.6,119.043,111.977,-11.0094
8329,96604.8,119.626,112.283,-11.5717
8341,96744,120.209,112.6,-12.118
8353,96883.2,120.79,112.929,-12.6323
8365,97022.4,121.371,113.269,-13.145
8377,97161.6,121.953,113.619,-13.644
8389,97300.8,122.533,113.979,-14.1303
8401,97440,123.114,114.348,-14.603
8413,97579.2,123.695,114.726,-15.0742
8425,97718.4,124.276,115.114,-15.53631
8437,97857.6,124.858,115.509,-15.9979
8449,97996.8,125.438,115.912,-16.4574
8461,98136,126.018,116.323,-16.9105
8473,98275.2,126.599,116.739,-17.3796
8485,98414.4,127.181,117.164,-17.8663
8497,98553.6,127.762,117.595,-18.3544
8509,98692.8,128.342,118.033,-18.8592
8521,98832,128.922,118.476,-19.42326
8533,98971.2,129.503,118.925,-20.0187
8545,99110.4,130.084,119.379,-20.6654
8557,99249.6,130.665,119.839,-21.4064
8569,99388.8,131.244,120.303,-22.23257
8581,99528,131.823,120.773,-23.1698
8593,99667.2,132.404,121.247,-24.20873
8605,99806.4,132.984,121.726,-25.3634
8617,99945.6,133.565,122.207,-26.545
8629,100084.8,134.144,122.694,-27.611
8641,100224,134.725,123.184,-28.3358
8653,100363.2,135.307,123.678,-28.5382
8665,100502.4,135.887,124.176,-28.21156
8677,100641.6,136.466,124.676,-27.6848
8689,100780.8,137.047,125.18,-27.277
8701,100920,137.626,125.687,-27.0965
8713,101059.2,138.208,126.197,-27.0502
8725,101198.4,138.79,126.71,-27.0962
8737,101337.6,139.37,127.226,-27.2141
8749,101476.8,139.95,127.745,-27.3511
8761,101616,140.529,128.266,-27.5125
8773,101755.2,141.109,128.789,-27.6883
8785,101894.4,141.689,129.315,-27.8886
8797,102033.6,142.27,129.843,-28.0635
8809,102172.8,142.85,130.373,-28.2495
8821,102312,143.431,130.905,-28.42
8833,102451.2,144.011,131.439,-28.6089
8845,102590.4,144.591,131.975,-28.7903
8857,102729.6,145.172,132.513,-28.9562
8869,102868.8,145.7507,133.053,-29.12761
8881,103008,146.331,133.594,-29.28367
8893,103147.2,146.911,134.137,-29.43179
8905,103286.4,147.491,134.681,-29.5937
8917,103425.6,148.071,135.227,-29.7388
8929,103564.8,148.651,135.775,-29.872
8941,103704,149.231,136.323,-30.0124
8953,103843.2,149.81,136.873,-30.1509
8965,103982.4,150.391,137.424,-30.2941
8977,104121.6,150.973,137.976,-30.4176
8989,104260.8,151.552,138.53,-30.5499
9001,104400,152.132,139.085,-30.6809
9013,104539.2,152.712,139.64,-30.7901
9025,104678.4,153.29,140.196,-30.923
9037,104817.6,153.873,140.754,-31.03929
9049,104956.8,154.451,141.313,-31.1563
9061,105096,155.034,141.873,-31.2716
9073,105235.2,155.616,142.434,-31.3783
9085,105374.4,156.195,142.995,-31.4864
9097,105513.6,156.775,143.557,-31.5966
9109,105652.8,157.354,144.121,-31.707
9121,105792,157.933,144.6845,-31.8054
9133,105931.2,158.513,145.251,-31.8864
9145,106070.4,159.092,145.816,-31.9638
9157,106209.6,159.673,146.3823,-32.0019
9169,106348.8,160.254,146.949,-31.9796
9181,106488,160.835,147.516,-31.8883
9193,106627.2,161.414,148.084,-31.6956
9205,106766.4,161.995,148.654,-31.3356
9217,106905.6,162.575,149.223,-30.7214
9229,107044.8,163.156,149.793,-29.7615
9241,107184,163.736,150.363,-28.3295
9253,107323.2,164.316,150.935,-26.2373
9265,107462.4,164.895,151.506,-23.2183
9277,107601.6,165.475,152.079,-18.91
9289,107740.8,166.054,152.652,-12.8288
9301,107880,166.635,153.225,-4.270924
9313,108019.2,167.215,153.8,7.597061
9325,108158.4,167.795,154.3748,23.606
9337,108297.6,168.374,154.95,44.2243
9349,108436.8,168.954,155.528,68.51493
9361,108576,169.535,156.105,92.5274
9373,108715.2,170.114,156.684,108.663
9385,108854.4,170.691,157.262,108.895
9397,108993.6,171.267,157.84,91.9856
9409,109132.8,171.844,158.417,65.335
9421,109272,172.422,158.992,38.2643
9433,109411.2,173.001,159.567,16.0505
9445,109550.4,173.578,160.141,0.013868
9457,109689.6,174.156,160.715,-10.6979
9469,109828.8,174.732,161.288,-17.4814
9481,109968,175.304,161.859,-21.6483
9493,110107.2,175.875,162.429,-24.1651
9505,110246.4,176.447,162.999,-25.6837
9517,110385.6,177.026,163.567,-26.606
9529,110524.8,177.611,164.134,-27.1612
9541,110664,178.202,164.702,-27.5257
9553,110803.2,178.795,165.269,-27.7848
9565,110942.4,179.386,165.839,-27.98045
9577,111081.6,179.974,166.41,-28.1684
9589,111220.8,180.562,166.983,-28.3869
9601,111360,181.148,167.556,-28.6096
9613,111499.2,181.732,168.131,-28.8905
9625,111638.4,182.314,168.707,-29.3008
9637,111777.6,182.895,169.285,-29.941
9649,111916.8,183.475,169.863,-31.1732
9661,112056,184.054,170.443,-33.75703
9673,112195.2,184.634,171.022,-39.449
9685,112334.4,185.212,171.603,-47.1312
9697,112473.6,185.791,172.184,-38.3587
9709,112612.8,186.369,172.767,-16.2604
9721,112752,186.949,173.351,-22.1253
9733,112891.2,187.527,173.935,-25.9358
9745,113030.4,188.108,174.519,-27.0876
9757,113169.6,188.688,175.103,-29.2317
9769,113308.8,189.266,175.688,-31.4293
9781,113448,189.846,176.274,-36.667
9793,113587.2,190.425,176.86,-62.0758
9805,113726.4,191.003,177.444,-122.392
9817,113865.6,191.582,178.025,-193.939
9829,114004.8,192.16,178.607,-250.543
9841,114144,192.739,179.188,-289.889
9853,114283.2,193.318,179.767,-314.264
9865,114422.4,193.898,180.349,-235.861
9877,114561.6,194.4784,180.934,-152.583
9889,114700.8,195.06,181.522,-105.917
9901,114840,195.643,182.111,-79.21501
9913,114979.2,196.223,182.7,-63.81947
9925,115118.4,196.804,183.29,-54.9459
9937,115257.6,197.384,183.88,-49.8551
9949,115396.8,197.963,184.471,-46.9813
9961,115536,198.544,185.062,-45.3986
9973,115675.2,199.123,185.652,-44.5309
9985,115814.4,199.702,186.244,-44.1087
9997,115953.6,200.281,186.834,-43.9536
10009,116092.8,200.861,187.425,-43.9263
10021,116232,201.438,188.017,-44.0001
10033,116371.2,202.017,188.608,-44.12278
10045,116510.4,202.595,189.199,-44.2706
10057,116649.6,203.175,189.789,-44.4216
10069,116788.8,203.756,190.38,-44.583
10081,116928,204.338,190.971,-44.7926
10093,117067.2,204.918,191.563,-45.00627
10105,117206.4,205.499,192.153,-45.2126
10117,117345.6,206.077,192.745,-45.4209
10129,117484.8,206.654,193.336,-45.6151
10141,117624,207.231,193.926,-45.80007
10153,117763.2,207.81,194.517,-46.03012
10165,117902.4,208.39,195.107,-46.2438
10177,118041.6,208.971,195.698,-46.4647
10189,118180.8,209.555,196.288,-46.68935
10201,118320,210.138,196.878,-46.9029
10213,118459.2,210.72,197.47,-47.1236
10225,118598.4,211.3,198.06,-47.4074
10237,118737.6,211.878,198.652,-47.6665
10249,118876.8,212.456,199.243,-47.9306
10261,119016,213.034,199.834,-48.1662
10273,119155.2,213.613,200.424,-48.4271
10285,119294.4,214.196,201.016,-48.6719
10297,119433.6,214.779,201.606,-48.947
10309,119572.8,215.361,202.198,-49.1681
10321,119712,215.942,202.789,-49.47646
10333,119851.2,216.521,203.381,-49.78654
10345,119990.4,217.1,203.972,-50.0543
10357,120129.6,217.678,204.563,-50.357
10369,120268.8,218.26,205.155,-50.6834
10381,120408,218.839,205.747,-51.0163
10393,120547.2,219.419,206.338,-51.3348
10405,120686.4,219.996,206.929,-51.6137
10417,120825.6,220.575,207.521,-51.98574
10429,120964.8,221.154,208.113,-52.3383
10441,121104,221.736,208.703,-52.67428
10453,121243.2,222.318,209.294,-53.0166
10465,121382.4,222.897,209.886,-53.4025
10477,121521.6,223.476,210.478,-53.7744
10489,121660.8,224.054,211.069,-54.1511
10501,121800,224.634,211.66,-54.4903
10513,121939.2,225.215,212.25,-54.8993
10525,122078.4,225.798,212.841,-55.2976
10537,122217.6,226.378,213.433,-55.73826
10549,122356.8,226.959,214.0241,-56.12852
10561,122496,227.539,214.615,-56.544
10573,122635.2,228.116,215.207,-57.0005
10585,122774.4,228.695,215.797,-57.4384
10597,122913.6,229.274,216.388,-57.8839
10609,123052.8,229.854,216.979,-58.32708
10621,123192,230.436,217.571,-58.8111
10633,123331.2,231.017,218.162,-59.3091
10645,123470.4,231.597,218.752,-59.83974
10657,123609.6,232.178,219.343,-60.42519
10669,123748.8,232.757,219.935,-60.9608
10681,123888,233.335,220.526,-61.5081
10693,124027.2,233.915,221.116,-62.0931
10705,124166.4,234.498,221.707,-62.7329
10717,124305.6,235.078,222.299,-63.3592
10729,124444.8,235.659,222.89,-63.9581
10741,124584,236.241,223.482,-64.5593
10753,124723.2,236.822,224.073,-65.2622
10765,124862.4,237.401,224.664,-65.9752
10777,125001.6,237.98,225.255,-66.628
10789,125140.8,238.557,225.846,-67.4276
10801,125280,239.137,226.438,-68.2231
10813,125419.2,239.717,227.029,-68.9122
10825,125558.4,240.296,227.621,-69.7515
10837,125697.6,240.875,228.211,-70.5657
10849,125836.8,241.455,228.802,-71.4638
10861,125976,242.034,229.393,-72.3363
10873,126115.2,242.616,229.984,-73.24094
10885,126254.4,243.197,230.575,-74.1153
10897,126393.6,243.777,231.165,-75.019
10909,126532.8,244.356,231.756,-76.0695
10921,126672,244.937,232.347,-77.1486
10933,126811.2,245.518,232.937,-78.2763
10945,126950.4,246.097,233.529,-79.4932
10957,127089.6,246.676,234.119,-80.693
10969,127228.8,247.257,234.709,-81.9173
10981,127368,247.838,235.299,-83.13662
10993,127507.2,248.418,235.892,-84.4363
11005,127646.4,248.999,236.482,-85.8124
11017,127785.6,249.578,237.073,-87.2991
11029,127924.8,250.1589,237.664,-88.80685
11041,128064,250.74,238.255,-90.3188
11053,128203.2,251.321,238.846,-91.9577
11065,128342.4,251.9,239.438,-93.7463
11077,128481.6,252.48,240.028,-95.5922
11089,128620.8,253.06,240.62,-97.3537
11101,128760,253.641,241.21,-99.2702
11113,128899.2,254.223,241.801,-101.328
11125,129038.4,254.802,242.392,-103.415
11137,129177.6,255.383,242.983,-105.664
11149,129316.8,255.961,243.5738,-108.036
11161,129456,256.537,244.165,-110.537
11173,129595.2,257.117,244.756,-113.103
11185,129734.4,257.697,245.347,-115.775
11197,129873.6,258.277,245.938,-118.567
11209,130012.8,258.859,246.528,-121.507
11221,130152,259.441,247.119,-124.59
11233,130291.2,260.021,247.71,-127.836
11245,130430.4,260.601,248.301,-131.261
11257,130569.6,261.181,248.891,-134.884
11269,130708.8,261.759,249.482,-138.701
11281,130848,262.339,250.072,-142.715
11293,130987.2,262.919,250.663,-146.884
11305,131126.4,263.497,251.252,-151.289
11317,131265.6,264.076,251.843,-155.942
11329,131404.8,264.656,252.433,-160.764
11341,131544,265.236,253.023,-165.804
11353,131683.2,265.818,253.613,-171.022
11365,131822.4,266.399,254.203,-176.372
11377,131961.6,266.978,254.793,-181.829
11389,132100.8,267.558,255.383,-187.416
11401,132240,268.14,255.972,-193.086
11413,132379.2,268.721,256.562,-198.841
11425,132518.4,269.301,257.151,-204.661
11437,132657.6,269.881,257.742,-210.585
11449,132796.8,270.459,258.331,-216.815
11461,132936,271.04,258.921,-222.321
11473,133075.2,271.621,259.51,-225.286
11485,133214.4,272.201,260.099,-222.359
11497,133353.6,272.78,260.69,-214.586
11509,133492.8,273.359,261.28,-211.007
11521,133632,273.94,261.87,-200.248
11533,133771.2,274.52,262.46,-187.744
11545,133910.4,275.1,263.051,-179.022
11557,134049.6,275.679,263.642,-175.627
11569,134188.8,276.259,264.233,-146.671
11581,134328,276.838,264.826,-122.053
11593,134467.2,277.417,265.417,-106.445
11605,134606.4,277.996,266.01,-96.455
11617,134745.6,278.5772,266.602,-90.0774
11629,134884.8,279.157,267.194,-86.0206
11641,135024,279.736,267.787,-83.4383
11653,135163.2,280.317,268.379,-81.8183
11665,135302.4,280.898,268.971,-80.8018
11677,135441.6,281.478,269.563,-80.1813
11689,135580.8,282.058,270.155,-79.7998
11701,135720,282.639,270.747,-79.5849
11713,135859.2,283.22,271.339,-79.4394
11725,135998.4,283.799,271.931,-79.3575
11737,136137.6,284.379,272.522,-79.3319
11749,136276.8,284.961,273.114,-79.3614
11761,136416,285.54,273.706,-79.3928
11773,136555.2,286.12,274.297,-79.5052
11785,136694.4,286.7,274.89,-79.4842
11797,136833.6,287.281,275.48,-79.483
11809,136972.8,287.86,276.071,-79.50868
11821,137112,288.44,276.663,-79.5438
11833,137251.2,289.019,277.254,-79.5615
11845,137390.4,289.6,277.845,-79.5761
11857,137529.6,290.179,278.436,-79.6022
11869,137668.8,290.76,279.027,-79.5991
11881,137808,291.34,279.617,-79.5766
11893,137947.2,291.921,280.208,-79.547
11905,138086.4,292.5,280.8,-79.54587
11917,138225.6,293.08,281.39,-79.5711
11929,138364.8,293.659,281.981,-79.5921
11941,138504,294.237,282.571,-79.6202
11953,138643.2,294.816,283.162,-79.6564
11965,138782.4,295.395,283.751,-79.6893
11977,138921.6,295.976,284.341,-79.7193
11989,139060.8,296.557,284.931,-79.7354
12001,139200,297.137,285.52,-79.7597
12013,139339.2,297.719,286.109,-79.7859
12025,139478.4,298.299,286.7,-79.81806
12037,139617.6,298.877,287.288,-79.8568
12049,139756.8,299.316,287.876,-79.8876
12061,139896,299.308,288.446,-79.8255
12073,140035.2,299.268,288.985,-79.3368
12085,140174.4,299.232,289.495,-78.16601
12097,140313.6,299.207,289.975,-76.29641
12109,140452.8,299.192,290.428,-73.8557
12121,140592,299.185,290.855,-71.02403
12133,140731.2,299.182,291.259,-67.9713
12145,140870.4,299.18,291.641,-64.8383
12157,141009.6,299.178,292.001,-61.7074
12169,141148.8,299.174,292.341,-58.6406
12181,141288,299.173,292.663,-55.6584
12193,141427.2,299.172,292.966,-52.7799
12205,141566.4,299.173,293.253,-50.0108
12217,141705.6,299.172,293.523,-47.3636
12229,141844.8,299.169,293.779,-44.8526
12241,141984,299.168,294.02,-42.4577
12253,142123.2,299.167,294.247,-40.1833
12265,142262.4,299.168,294.461,-38.0096
12277,142401.6,299.166,294.664,-35.9643
12289,142540.8,299.161,294.856,-34.0429
12301,142680,299.159,295.037,-32.2379
12313,142819.2,299.16,295.211,-30.551
12325,142958.4,299.163,295.373,-28.97263
12337,143097.6,299.164,295.529,-27.4871
12349,143236.8,299.166,295.676,-26.1018
12361,143376,299.166,295.815,-24.7996
12373,143515.2,299.166,295.948,-23.5626
12385,143654.4,299.165,296.073,-22.3916
12397,143793.6,299.164,296.192,-21.2921
12409,143932.8,299.163,296.304,-20.2373
12421,144072,299.161,296.409,-19.23169
12433,144211.2,299.16,296.509,-18.27506
12445,144350.4,299.158,296.604,-17.3527
12457,144489.6,299.159,296.692,-16.4678
12469,144628.8,299.158,296.776,-15.634
12481,144768,299.151,296.856,-14.836
12493,144907.2,299.144,296.929,-14.0538
12505,145046.4,299.144,296.999,-13.293
12517,145185.6,299.146,297.064,-12.5799
12529,145324.8,299.149,297.125,-11.8963
12541,145464,299.142,297.183,-11.2598
12553,145603.2,299.134,297.236,-10.6512
12565,145742.4,299.133,297.285,-10.0632
12577,145881.6,299.135,297.332,-9.495626
12589,146020.8,299.141,297.375,-8.960054
12601,146160,299.147,297.4166,-8.455973
12613,146299.2,299.151,297.456,-7.997973
12625,146438.4,299.154,297.494,-7.593258
12637,146577.6,299.156,297.53,-7.232718
12649,146716.8,299.155,297.564,-6.90072
12661,146856,299.156,297.596,-6.581295
12673,146995.2,299.157,297.627,-6.304647
12685,147134.4,299.157,297.656,-6.027341
12697,147273.6,299.158,297.684,-5.771526
12709,147412.8,299.155,297.71,-5.523112
12721,147552,299.154,297.734,-5.29395
12733,147691.2,299.153,297.758,-5.078535
12745,147830.4,299.154,297.78,-4.873614
12757,147969.6,299.156,297.8,-4.665959
12769,148108.8,299.153,297.82,-4.467073
12781,148248,299.143,297.839,-4.274207
12793,148387.2,299.136,297.854,-4.073292
12805,148526.4,299.134,297.868,-3.866896
12817,148665.6,299.137,297.882,-3.649349
12829,148804.8,299.142,297.894,-3.448638
12841,148944,299.146,297.905,-3.254111
12853,149083.2,299.141,297.917,-3.08997
12865,149222.4,299.133,297.926,-2.937686
12877,149361.6,299.131,297.934,-2.773907
12889,149500.8,299.133,297.941,-2.605669
12901,149640,299.138,297.948,-2.436232
12913,149779.2,299.1444,297.954,-2.297354
12925,149918.4,299.145,297.961,-2.176327
12937,150057.6,299.137,297.966,-2.074013
12949,150196.8,299.13,297.97,-1.975309
12961,150336,299.131,297.973,-1.867508
12973,150475.2,299.136,297.976,-1.746837
12985,150614.4,299.142,297.979,-1.628054
12997,150753.6,299.149,297.982,-1.523861
13009,150892.8,299.154,297.985,-1.450907
13021,151032,299.157,297.9882,-1.412111
13033,151171.2,299.156,297.993,-1.395112
13045,151310.4,299.144,297.996,-1.382578
13057,151449.6,299.133,297.997,-1.373479
13069,151588.8,299.128,297.998,-1.318381
13081,151728,299.13,297.997,-1.219002
13093,151867.2,299.134,297.997,-1.110009
13105,152006.4,299.143,297.996,-1.000502
13117,152145.6,299.145,297.996,-0.922062
13129,152284.8,299.138,297.995,-0.887906
13141,152424,299.132,297.994,-0.846713
13153,152563.2,299.131,297.992,-0.767759
13165,152702.4,299.136,297.99,-0.689319
13177,152841.6,299.141,297.988,-0.611223
13189,152980.8,299.149,297.986,-0.539648
13201,153120,299.148,297.985,-0.518365
13213,153259.2,299.139,297.984,-0.502403
13225,153398.4,299.133,297.982,-0.465843
13237,153537.6,299.133,297.979,-0.407142
13249,153676.8,299.138,297.976,-0.348612
13261,153816,299.146,297.973,-0.296433
13273,153955.2,299.152,297.971,-0.250604
13285,154094.4,299.154,297.97,-0.21473
13297,154233.6,299.153,297.969,-0.191386
13309,154372.8,299.155,297.968,-0.170102
13321,154512,299.158,297.967,-0.138348
13333,154651.2,299.161,297.967,-0.082047
13345,154790.4,299.166,297.968,-0.039307
13357,154929.6,299.17,297.97,-0.013903
13369,155068.8,299.17,297.972,-0.020941
13381,155208,299.162,297.975,-0.054583
13393,155347.2,299.154,297.976,-0.085136
13405,155486.4,299.151,297.978,-0.094577
13417,155625.6,299.152,297.979,-0.069688
13429,155764.8,299.155,297.98,-0.030896
13441,155904,299.152,297.981,-0.005321
13453,156043.2,299.14,297.982,-0.004634
13465,156182.4,299.134,297.981,0.045314
13477,156321.6,299.136,297.98,0.124614
13489,156460.8,299.141,297.978,0.208377
13501,156600,299.15,297.977,0.285103
13513,156739.2,299.157,297.978,0.330417
13525,156878.4,299.162,297.978,0.340372
13537,157017.6,299.163,297.98,0.328528
13549,157156.8,299.16,297.982,0.288191
13561,157296,299.146,297.983,0.234295
13573,157435.2,299.13,297.982,0.227429
13585,157574.4,299.125,297.979,0.284244
13597,157713.6,299.127,297.976,0.38071
13609,157852.8,299.133,297.973,0.464646
13621,157992,299.142,297.971,0.546007
13633,158131.2,299.147,297.969,0.597331
13645,158270.4,299.141,297.967,0.630117
13657,158409.6,299.136,297.964,0.656037
13669,158548.8,299.137,297.962,0.681786
13681,158688,299.142,297.959,0.719036
13693,158827.2,299.148,297.956,0.717664
13705,158966.4,299.155,297.955,0.708911
13717,159105.6,299.163,297.954,0.686769
13729,159244.8,299.167,297.954,0.642998
13741,159384,299.168,297.955,0.585495
13753,159523.2,299.168,297.957,0.52473
13765,159662.4,299.158,297.958,0.436502
13777,159801.6,299.145,297.959,0.386381
13789,159940.8,299.137,297.958,0.382605
13801,160080,299.137,297.957,0.408353
13813,160219.2,299.141,297.956,0.449892
13825,160358.4,299.149,297.955,0.491947
13837,160497.6,299.156,297.953,0.523531
13849,160636.8,299.164,297.955,0.54962
13861,160776,299.171,297.955,0.532284
13873,160915.2,299.176,297.9581,0.498982
13885,161054.4,299.175,297.961,0.433755
13897,161193.6,299.174,297.966,0.337115
13909,161332.8,299.172,297.97,0.251634
13921,161472,299.169,297.974,0.171818
13933,161611.2,299.167,297.978,0.119293
13945,161750.4,299.155,297.982,0.068143
13957,161889.6,299.142,297.984,0.04171
13969,162028.8,299.137,297.985,0.054411
13981,162168,299.138,297.986,0.116546
13993,162307.2,299.143,297.986,0.204256
14005,162446.4,299.149,297.987,0.281667
14017,162585.6,299.154,297.988,0.345175
14029,162724.8,299.156,297.99,0.373667
14041,162864,299.155,297.991,0.386197
14053,163003.2,299.156,297.993,0.390831
14065,163142.4,299.158,297.994,0.372636
14077,163281.6,299.161,297.997,0.359418
14089,163420.8,299.156,297.999,0.332813
14101,163560,299.152,298.001,0.317708
14113,163699.2,299.15,298.003,0.317193
14125,163838.4,299.152,298.004,0.329894
14137,163977.6,299.153,298.005,0.349289
14149,164116.8,299.158,298.007,0.364392
14161,164256,299.16,298.009,0.369712
14173,164395.2,299.157,298.012,0.343622
14185,164534.4,299.154,298.014,0.337957
14197,164673.6,299.155,298.016,0.330405
14209,164812.8,299.155,298.018,0.332635
14221,164952,299.157,298.02,0.324053
14233,165091.2,299.162,298.023,0.320791
14245,165230.4,299.162,298.026,0.310492
14257,165369.6,299.16,298.029,0.282514
14269,165508.8,299.158,298.032,0.268096
14281,165648,299.158,298.035,0.25917
14293,165787.2,299.159,298.038,0.247841
14305,165926.4,299.161,298.041,0.239087
14317,166065.6,299.159,298.044,0.224326
14329,166204.8,299.157,298.048,0.227071
14341,166344,299.158,298.05,0.222951
14353,166483.2,299.158,298.054,0.211966
14365,166622.4,299.159,298.057,0.211451
14377,166761.6,299.159,298.06,0.208704
14389,166900.8,299.154,298.063,0.219344
14401,167040,299.153,298.066,0.223806
14413,167179.2,299.154,298.068,0.237364
14425,167318.4,299.156,298.071,0.239423
14437,167457.6,299.16,298.074,0.248004
14449,167596.8,299.16,298.078,0.24766
14461,167736,299.161,298.082,0.267911
14473,167875.2,299.16,298.085,0.255553
14485,168014.4,299.161,298.089,0.235987
14497,168153.6,299.163,298.092,0.220883
14509,168292.8,299.165,298.096,0.198571
14521,168432,299.165,298.1,0.18381
14533,168571.2,299.164,298.105,0.160125
14545,168710.4,299.163,298.109,0.153774
14557,168849.6,299.164,298.114,0.128888
14569,168988.8,299.165,298.119,0.110696
14581,169128,299.165,298.123,0.101256
14593,169267.2,299.164,298.128,0.102629
14605,169406.4,299.163,298.133,0.098853
14617,169545.6,299.163,298.138,0.071393
14629,169684.8,299.163,298.143,0.062297
14641,169824,299.164,298.147,0.061954
14653,169963.2,299.164,298.153,0.065557
14665,170102.4,299.165,298.158,0.067101
14677,170241.6,299.165,298.163,0.059893
14689,170380.8,299.164,298.168,0.048567
14701,170520,299.162,298.173,0.038098
14713,170659.2,299.16,298.177,0.035352
14725,170798.4,299.158,298.183,0.038098
14737,170937.6,299.1568,298.186,0.047193
14749,171076.8,299.155,298.191,0.060921
14761,171216,299.153,298.195,0.082201
14773,171355.2,299.152,298.199,0.1088
14785,171494.4,299.153,298.202,0.134883
14797,171633.6,299.153,298.206,0.159766
14809,171772.8,299.153,298.209,0.178642
14821,171912,299.155,298.213,0.208501
14833,172051.2,299.157,298.216,0.215536
14845,172190.4,299.16,298.22,0.215535
14857,172329.6,299.159,298.224,0.216564
14869,172468.8,299.159,298.227,0.215534
14881,172608,299.158,298.231,0.221024
14893,172747.2,299.158,298.2337,0.234237
14897,172793.6,299.157,298.235,0.249681