File: i_data_processed/old_wt%/26.96wt%_climb_proc.txt
 Index  Time(s)  Furnace Temperature(K)  Sample Temperature(K)  HeatFlow(mW)  Q_Corrected       Fc
  6001 101400.0              104.366             104.126     -1.186987    -0.702998      NaN
  6014 101619.7              104.393             104.153     -1.188039    -0.687565      NaN
  6027 101839.4              104.421             104.18     -1.198516    -0.705045      NaN
  6040 102059.1              104.448             104.207     -1.201188    -0.711942      NaN
  6053 102278.8              104.476             104.233     -1.205484    -0.703454      NaN
  6066 102498.5              104.502             104.26     -1.209126    -0.723383      NaN
  6079 102718.2              104.527             104.287     -1.221217    -0.728875      NaN
  6092 102937.9              104.552             104.313     -1.201795    -0.708113      NaN
  6105 103157.6              104.6             104.34     -1.205760    -0.716000      NaN
  6118 103377.3              104.964             104.374     -1.286621    -0.799544      NaN
  6131 103597.0              105.571             104.436     -1.616740    -1.121822      NaN
  6144 103816.7              106.108             104.53     -2.181185    -1.681512      NaN
  6157 104036.4              106.536             104.65     -2.810000    -2.314870      NaN
  6170 104256.1              106.905             104.789     -3.385641    -2.887617      NaN
  6183 104475.8              107.258             104.942     -3.847725    -3.357346      NaN
  6196 104695.5              107.613             105.11     -4.245577    -3.756641      NaN
  6209 104915.2              107.977             105.289     -4.600686    -4.109474      NaN
  6222 105134.9              108.348             105.482     -4.918577    -4.424777      NaN
  6235 105354.6              108.719             105.686     -5.231822    -4.741327      NaN
  6248 105574.3              109.086             105.901     -5.522111    -5.026233      NaN
  6261 105794.0              109.453             106.125     -5.800465    -5.310994      NaN
  6274 106013.7              109.819             106.359     -6.061724    -5.564383      NaN
  6287 106233.4              110.187             106.601     -6.311109    -5.817694      NaN
  6300 106453.1              110.554             106.851     -6.529892    -5.965285      NaN
  6313 106672.8              110.92             107.11     -6.749016    -6.083845      NaN
  6326 106892.5              111.287             107.375     -6.948861    -6.189861      NaN
  6339 107112.2              111.654             107.646     -7.144735    -6.340545      NaN
  6352 107331.9              112.02             107.923     -7.339179    -6.491230      NaN
  6365 107551.6              112.386             108.207     -7.505960    -6.617825      NaN
  6378 107771.3              112.755             108.495     -7.673351    -6.756660      NaN
  6391 107991.0              113.123             108.789     -7.828102    -6.881466      NaN
  6404 108210.7              113.489             109.087     -7.996070    -7.013160      NaN
  6417 108430.4              113.856             109.39     -8.128623    -7.116417      NaN
  6430 108650.1              114.221             109.697     -8.281611    -7.238734      NaN
  6443 108869.8              114.587             110.007     -8.405696    -7.341244      NaN
  6456 109089.5              114.953             110.32     -8.543664    -7.459013      NaN
  6469 109309.2              115.318             110.636     -8.659777    -7.544024      NaN
  6482 109528.9              115.683             110.956     -8.782896    -7.647859      NaN
  6495 109748.6              116.052             111.278     -8.897595    -7.741560      NaN
  6508 109968.3              116.421             111.604     -9.031249    -7.860151      NaN
  6521 110188.0              116.787             111.931     -9.133218    -7.932266      NaN
  6534 110407.7              117.155             112.262     -9.255961    -8.047201      NaN
  6547 110627.4              117.521             112.594     -9.366129    -8.145995      NaN
  6560 110847.1              117.886             112.928     -9.489104    -8.245583      NaN
  6573 111066.8              118.253             113.264     -9.608374    -8.354296      NaN
  6586 111286.5              118.617             113.602     -9.731233    -8.472423      NaN
  6599 111506.2              118.982             113.941     -9.845292    -8.569464      NaN
  6612 111725.9              119.35             114.282     -9.958756    -8.686137      NaN
  6625 111945.6              119.717             114.624    -10.0908    -8.793851      NaN
  6638 112165.3              120.079             114.968    -10.2298    -8.934624      NaN
  6651 112385.0              120.44             115.312    -10.3635    -9.053178      NaN
  6664 112604.7              120.803             115.657    -10.5113    -9.201355      NaN
  6677 112824.4              121.173             116.002    -10.6679    -9.347165      NaN
  6690 113044.1              121.55             116.348    -10.8345    -9.505616      NaN
  6703 113263.8              121.923             116.697    -11.0563    -9.734693      NaN
  6716 113483.5              122.288             117.047    -11.305    -9.971255      NaN
  6729 113703.2              122.653             117.398    -11.5732   -10.24      NaN
  6742 113922.9              123.014             117.75    -11.8863   -10.5469      NaN
  6755 114142.6              123.374             118.102    -12.2151   -10.8652      NaN
  6768 114362.3              123.736             118.454    -12.6062   -11.2634      NaN
  6781 114582.0              124.108             118.806    -13.0325   -11.6836      NaN
  6794 114801.7              124.48             119.16    -13.5513   -12.1922      NaN
  6807 115021.4              124.847             119.514    -14.1252   -12.7729      NaN
  6820 115241.1              125.213             119.869    -14.7724   -13.4315      NaN
  6833 115460.8              125.577             120.225    -15.4454   -14.0965      NaN
  6846 115680.5              125.941             120.581    -16.1348   -14.7817      NaN
  6859 115900.2              126.309             120.937    -16.77   -15.4204      NaN
  6872 116119.9              126.676             121.294    -17.2647   -15.9115      NaN
  6885 116339.6              127.043             121.651    -17.5517   -16.1963      NaN
  6898 116559.3              127.404             122.008    -17.5252   -16.1683      NaN
  6911 116779.0              127.766             122.365    -17.2279   -15.8666      NaN
  6924 116998.7              128.134             122.722    -16.7507   -15.3978      NaN
  6937 117218.4              128.508             123.081    -16.2645   -14.9151      NaN
  6950 117438.1              128.876             123.439    -15.881   -14.525      NaN
  6963 117657.8              129.242             123.799    -15.6539   -14.3096      NaN
  6976 117877.5              129.605             124.158    -15.5112   -14.1594      NaN
  6989 118097.2              129.966             124.517    -15.4449   -14.0969      NaN
  7002 118316.9              130.328             124.876    -15.3946   -14.0538      NaN
  7015 118536.6              130.7             125.234    -15.3675   -14.0282      NaN
  7028 118756.3              131.07             125.594    -15.3617   -14.0256      NaN
  7041 118976.0              131.439             125.954    -15.3711   -14.0256      NaN
  7054 119195.7              131.805             126.315    -15.3918   -14.0528      NaN
  7067 119415.4              132.162             126.675    -15.3953   -14.0573      NaN
  7080 119635.1              132.522             127.035    -15.3953   -14.0687      NaN
  7093 119854.8              132.888             127.394    -15.3908   -14.0687      NaN
  7106 120074.5              133.259             127.753    -15.3821   -14.0546      NaN
  7119 120294.2              133.635             128.112    -15.3929   -14.0725      NaN
  7132 120513.9              134.011             128.473    -15.4228   -14.0953      NaN
  7145 120733.6              134.378             128.835    -15.4687   -14.1471      NaN
  7158 120953.3              134.736             129.197    -15.5017   -14.2001      NaN
  7171 121173.0              135.088             129.559    -15.5168   -14.2089      NaN
  7184 121392.7              135.446             129.918    -15.5086   -14.2026      NaN
  7197 121612.4              135.813             130.278    -15.4983   -14.1875      NaN
  7210 121832.1              136.187             130.637    -15.4871   -14.1852      NaN
  7223 122051.8              136.561             130.997    -15.4911   -14.1871      NaN
  7236 122271.5              136.933             131.357    -15.5109   -14.2182      NaN
  7249 122491.2              137.305             131.719    -15.5508   -14.2484      NaN
  7262 122710.9              137.667             132.081    -15.5789   -14.284      NaN
  7275 122930.6              138.023             132.443    -15.6173   -14.3393      NaN
  7288 123150.3              138.386             132.804    -15.6234   -14.3418      NaN
  7301 123370.0              138.755             133.165    -15.6271   -14.3404      NaN
  7314 123589.7              139.126             133.526    -15.6362   -14.3555      NaN
  7327 123809.4              139.497             133.889    -15.6471   -14.376      NaN
  7340 124029.1              139.865             134.252    -15.6849   -14.4102      NaN
  7353 124248.8              140.222             134.613    -15.6961   -14.4234      NaN
  7366 124468.5              140.58             134.975    -15.7049   -14.4403      NaN
  7379 124688.2              140.946             135.335    -15.6991   -14.428      NaN
  7392 124907.9              141.318             135.697    -15.6922   -14.4339      NaN
  7405 125127.6              141.69             136.058    -15.7115   -14.4575      NaN
  7418 125347.3              142.061             136.421    -15.7325   -14.4686      NaN
  7431 125567.0              142.428             136.783    -15.7501   -14.4908      NaN
  7444 125786.7              142.797             137.147    -15.7744   -14.5199      NaN
  7457 126006.4              143.164             137.511    -15.8013   -14.554      NaN
  7470 126226.1              143.52             137.874    -15.8264   -14.583      NaN
  7483 126445.8              143.875             138.238    -15.8175   -14.5708      NaN
  7496 126665.5              144.239             138.6    -15.7721   -14.532      NaN
  7509 126885.2              144.611             138.961    -15.7167   -14.4839      NaN
  7522 127104.9              144.984             139.323    -15.6687   -14.4367      NaN
  7535 127324.6              145.354             139.687    -15.6085   -14.3855      NaN
  7548 127544.3              145.72             140.05    -15.5067   -14.2832      NaN
  7561 127764.0              146.082             140.413    -15.328   -14.0975      NaN
  7574 127983.7              146.448             140.776    -15.0275   -13.7941      NaN
  7587 128203.4              146.817             141.139    -14.5599   -13.3362      NaN
  7600 128423.1              147.188             141.504    -13.8279   -12.6066      NaN
  7613 128642.8              147.551             141.869    -12.6933   -11.4699      NaN
  7626 128862.5              147.911             142.233    -10.9241    -9.706797      NaN
  7639 129082.2              148.275             142.597     -8.160241    -6.952025      NaN
  7652 129301.9              148.645             142.961     -3.902329    -2.693017      NaN
  7665 129521.6              149.02             143.326      2.621749     3.831385      NaN
  7678 129741.3              149.392             143.693     12.5844    13.7943      NaN
  7691 129961.0              149.756             144.061     27.6653    28.8619      NaN
  7704 130180.7              150.119             144.43     50.2414    51.4361      NaN
  7717 130400.4              150.477             144.799     82.8989    84.0932      NaN
  7730 130620.1              150.833             145.17    125.907   127.105      NaN
  7743 130839.8              151.199             145.542    169.186   170.375      NaN
  7756 131059.5              151.568             145.915    188.385   189.569      NaN
  7769 131279.2              151.942             146.286    170.286   171.465      NaN
  7782 131498.9              152.313             146.657    130.808   131.986      NaN
  7795 131718.6              152.681             147.025     90.4117    91.5891      NaN
  7808 131938.3              153.042             147.39     58.2296    59.4019      NaN
  7821 132158.0              153.408             147.756     35.3408    36.5061      NaN
  7834 132377.7              153.78             148.122     19.9252    21.0855      NaN
  7847 132597.4              154.145             148.486      9.812858    10.9714      NaN
  7860 132817.1              154.503             148.85      3.187211     4.343520      NaN
  7873 133036.8              154.865             149.214     -1.193336    -0.040259      NaN
  7886 133256.5              155.227             149.577     -4.119560    -2.971429      NaN
  7899 133476.2              155.592             149.94     -6.091017    -4.939935      NaN
  7912 133695.9              155.962             150.302     -7.437403    -6.301794      NaN
  7925 133915.6              156.33             150.665     -8.346922    -7.232366      NaN
  7938 134135.3              156.694             151.028     -8.940209    -7.827053      NaN
  7951 134355.0              157.062             151.39     -9.334218    -8.229529      NaN
  7964 134574.7              157.433             151.753     -9.622496    -8.512829      NaN
  7977 134794.4              157.805             152.117     -9.820005    -8.705378      NaN
  7990 135014.1              158.175             152.482     -9.962670    -8.868372      NaN
  8003 135233.8              158.537             152.846    -10.077    -8.984730      NaN
  8016 135453.5              158.901             153.21    -10.2031    -9.104411      NaN
  8029 135673.2              159.268             153.575    -10.291    -9.186184      NaN
  8042 135892.9              159.639             153.941    -10.386    -9.292589      NaN
  8055 136112.6              160.006             154.307    -10.483    -9.393564      NaN
  8068 136332.3              160.366             154.673    -10.5718    -9.486063      NaN
  8081 136552.0              160.731             155.039    -10.6952    -9.624948      NaN
  8094 136771.7              161.1             155.405    -10.7326    -9.667411      NaN
  8107 136991.4              161.468             155.771    -10.8104    -9.755054      NaN
  8120 137211.1              161.829             156.138    -10.8509    -9.806319      NaN
  8133 137430.8              162.191             156.504    -10.9006    -9.837675      NaN
  8146 137650.5              162.56             156.87    -10.9392    -9.876103      NaN
  8159 137870.2              162.933             157.237    -10.9797    -9.907053      NaN
  8172 138089.9              163.297             157.604    -11.0471    -9.993979      NaN
  8185 138309.6              163.658             157.971    -11.066   -10.034      NaN
  8198 138529.3              164.023             158.336    -11.0962   -10.0713      NaN
  8211 138749.0              164.393             158.704    -11.1514   -10.1198      NaN
  8224 138968.7              164.762             159.07    -11.2183   -10.1822      NaN
  8237 139188.4              165.123             159.437    -11.2367   -10.2444      NaN
  8250 139408.1              165.486             159.803    -11.2989   -10.2945      NaN
  8263 139627.8              165.854             160.17    -11.3414   -10.3441      NaN
  8276 139847.5              166.226             160.536    -11.418   -10.4503      NaN
  8289 140067.2              166.593             160.904    -11.435   -10.4415      NaN
  8302 140286.9              166.953             161.271    -11.5134   -10.561      NaN
  8315 140506.6              167.316             161.637    -11.5878   -10.6298      NaN
  8328 140726.3              167.685             162.004    -11.7206   -10.7625      NaN
  8341 140946.0              168.052             162.37    -11.8094   -10.8818      NaN
  8354 141165.7              168.415             162.736    -11.8968   -10.9931      NaN
  8367 141385.4              168.779             163.102    -11.9661   -11.0313      NaN
  8380 141605.1              169.148             163.468    -12.0104   -11.0726      NaN
  8393 141824.8              169.52             163.834    -12.0951   -11.1488      NaN
  8406 142044.5              169.889             164.2    -12.1459   -11.2472      NaN
  8419 142264.2              170.25             164.568    -11.2864   -10.3627      NaN
  8432 142483.9              170.612             164.934    -11.445   -10.5236      NaN
  8445 142703.6              170.978             165.3    -11.4835   -10.5535      NaN
  8458 142923.3              171.348             165.666    -11.5451   -10.656      NaN
  8471 143143.0              171.719             166.033    -11.6087   -10.7427      NaN
  8484 143362.7              172.086             166.4    -11.6129   -10.7486      NaN
  8497 143582.4              172.446             166.767    -11.6771   -10.8363      NaN
  8510 143802.1              172.811             167.134    -11.7908   -10.9742      NaN
  8523 144021.8              173.18             167.5    -11.8734   -11.0836      NaN
  8536 144241.5              173.55             167.866    -11.8451   -11.0504      NaN
  8549 144461.2              173.918             168.234    -11.8812   -11.0973      NaN
  8562 144680.9              174.278             168.601    -11.9529   -11.1806      NaN
  8575 144900.6              174.64             168.968    -12.0218   -11.2653      NaN
  8588 145120.3              175.009             169.334    -12.0314   -11.2535      NaN
  8601 145340.0              175.379             169.702    -12.0786   -11.2909      NaN
  8614 145559.7              175.748             170.07    -12.1764   -11.4587      NaN
  8627 145779.4              176.111             170.436    -12.3458   -11.598      NaN
  8640 145999.1              176.473             170.804    -12.3674   -11.6531      NaN
  8653 146218.8              176.839             171.171    -12.5471   -11.7969      NaN
  8666 146438.5              177.209             171.538    -12.5195   -11.8407      NaN
  8679 146658.2              177.575             171.905    -12.459   -11.8035      NaN
  8692 146877.9              177.938             172.273    -12.5179   -11.8956      NaN
  8705 147097.6              178.305             172.64    -12.6143   -11.9774      NaN
  8718 147317.3              178.671             173.007    -12.6569   -11.9994      NaN
  8731 147537.0              179.035             173.374    -12.7129   -12.0719      NaN
  8744 147756.7              179.401             173.741    -12.8057   -12.2128      NaN
  8757 147976.4              179.771             174.108    -13.0457   -12.4445      NaN
  8770 148196.1              180.141             174.475    -13.4087   -12.8205      NaN
  8783 148415.8              180.511             174.843    -14.1705   -13.5553      NaN
  8796 148635.5              180.875             175.211    -15.6401   -15.0246 0.180027
  8809 148855.2              181.235             175.578    -19.2073   -18.5677 0.178401
  8822 149074.9              181.601             175.946    -29.6161   -29.0898 0.176765
  8835 149294.6              181.97             176.312    -56.0432   -55.5106 0.175131
  8848 149514.3              182.338             176.678    -93.7872   -93.1347 0.173493
  8861 149734.0              182.702             177.041   -134.3  -133.717 0.171863
  8874 149953.7              183.063             177.404   -162.348  -161.764 0.170222
  8887 150173.4              183.429             177.765   -177.85  -177.391 0.168586
  8900 150393.1              183.8             178.127   -201.178  -200.682 0.166940
  8913 150612.8              184.167             178.488   -222.991  -222.419 0.165292
  8926 150832.5              184.531             178.849   -234.665  -234.145 0.163637
  8939 151052.2              184.897             179.21   -235.626  -235.066 0.161974
  8952 151271.9              185.264             179.572   -225.803  -225.337 0.160299
  8965 151491.6              185.628             179.935   -204.644  -204.162 0.158613
  8978 151711.3              185.992             180.3   -167.304  -166.795 0.156913
  8991 151931.0              186.36             180.666   -103.238  -102.755 0.155196
  9004 152150.7              186.731             181.036    -58.6806   -58.1427 0.153459
  9017 152370.4              187.098             181.407    -38.3491   -37.7906 0.151703
  9030 152590.1              187.46             181.778    -29.2353   -28.7188 0.149942
  9043 152809.8              187.826             182.149    -25.2437   -24.8222 0.148173
  9056 153029.5              188.195             182.52    -23.3837   -22.9147 0.146394
  9069 153249.2              188.563             182.892    -22.6795   -22.2638 0.144603
  9082 153468.9              188.928             183.263    -22.3327   -21.9435 0.142809
  9095 153688.6              189.29             183.633    -22.2912   -21.8592 0.141010
  9108 153908.3              189.656             184.003    -22.1574   -21.7498 0.139201
  9121 154128.0              190.026             184.373    -22.1114   -21.7359 0.137385
  9134 154347.7              190.395             184.743    -22.2035   -21.8941 0.135557
  9147 154567.4              190.762             185.115    -22.3004   -21.9974 0.133712
  9160 154787.1              191.125             185.485    -22.4161   -22.0914 0.131864
  9173 155006.8              191.49             185.855    -22.4816   -22.1011 0.130010
  9186 155226.5              191.857             186.225    -22.4632   -22.1382 0.128145
  9199 155446.2              192.222             186.595    -22.561   -22.1654 0.126269
  9212 155665.9              192.584             186.964    -22.7433   -22.3313 0.124389
  9225 155885.6              192.95             187.334    -22.6603   -22.2276 0.122494
  9238 156105.3              193.32             187.702    -22.6997   -22.3981 0.120597
  9251 156325.0              193.688             188.072    -22.7913   -22.4735 0.118682
  9264 156544.7              194.052             188.441    -22.8809   -22.5025 0.116757
  9277 156764.4              194.415             188.81    -22.9643   -22.632 0.114826
  9290 156984.1              194.784             189.18    -23.1601   -22.7978 0.112878
  9303 157203.8              195.153             189.548    -23.1722   -22.855 0.110926
  9316 157423.5              195.519             189.918    -23.3536   -22.9898 0.108954
  9329 157643.2              195.881             190.286    -23.3581   -23.0996 0.106979
  9342 157862.9              196.247             190.654    -23.4516   -23.1502 0.104993
  9355 158082.6              196.616             191.023    -23.4468   -23.1501 0.102990
  9368 158302.3              196.986             191.393    -23.5982   -23.2637 0.100972
  9381 158522.0              197.35             191.761    -23.7038   -23.4733 0.098949
  9394 158741.7              197.712             192.131    -23.7915   -23.6296 0.096905
  9407 158961.4              198.076             192.499    -23.7742   -23.7135 0.094856
  9420 159181.1              198.44             192.867    -23.8473   -23.8544 0.092797
  9433 159400.8              198.808             193.234    -23.8969   -23.8099 0.090726
  9446 159620.5              199.179             193.602    -23.9465   -23.8168 0.088639
  9459 159840.2              199.55             193.971    -24.2012   -24.1591 0.086535
  9472 160059.9              199.918             194.34    -24.36   -24.2308 0.084412
  9485 160279.6              200.281             194.709    -24.3625   -24.2026 0.082279
  9498 160499.3              200.645             195.079    -24.567   -24.5304 0.080127
  9511 160719.0              201.013             195.448    -24.6542   -24.6724 0.077965
  9524 160938.7              201.376             195.816    -24.7566   -24.6269 0.075789
  9537 161158.4              201.739             196.185    -24.8976   -24.8069 0.073600
  9550 161378.1              202.104             196.553    -24.8202   -24.7353 0.071396
  9563 161597.8              202.467             196.921    -24.798   -24.6081 0.069178
  9576 161817.5              202.833             197.288    -24.963   -24.7099 0.066951
  9589 162037.2              203.202             197.655    -25.2308   -25.0617 0.064704
  9602 162256.9              203.573             198.023    -25.2645   -25.049 0.062438
  9615 162476.6              203.945             198.392    -25.3368   -25.1832 0.060155
  9628 162696.3              204.313             198.761    -25.5201   -25.3796 0.057849
  9641 162916.0              204.676             199.129    -25.4433   -25.2712 0.055533
  9654 163135.7              205.038             199.498    -25.6246   -25.552 0.053191
  9667 163355.4              205.404             199.866    -25.9057   -25.8724 0.050840
  9680 163575.1              205.773             200.235    -26.0168   -26 0.048465
  9693 163794.8              206.14             200.604    -26.2324   -26.2906 0.046070
  9706 164014.5              206.505             200.973    -26.3523   -26.415 0.043655
  9719 164234.2              206.866             201.343    -26.404   -26.5047 0.041223
  9732 164453.9              207.231             201.712    -26.6207   -26.6598 0.038772
  9745 164673.6              207.6             202.08    -26.7277   -26.7206 0.036304
  9758 164893.3              207.969             202.448    -26.8301   -26.8002 0.033820
  9771 165113.0              208.335             202.816    -27.0112   -26.9464 0.031315
  9784 165332.7              208.698             203.185    -27.0308   -27.0373 0.028784
  9797 165552.4              209.064             203.554    -27.1853   -27.4358 0.026236
  9810 165772.1              209.428             203.922    -27.2801   -27.4764 0.023668
  9823 165991.8              209.791             204.29    -27.1754   -27.3399 0.021078
  9836 166211.5              210.158             204.658    -27.607   -27.5593 0.018470
  9849 166431.2              210.53             205.025    -27.6495   -27.7025 0.015844
  9862 166650.9              210.899             205.393    -27.8631   -27.9693 0.013191
  9875 166870.6              211.267             205.762    -28.0178   -27.9755 0.010506
  9888 167090.3              211.632             206.13    -28.0832   -28.1534 0.007804
  9901 167310.0              211.996             206.499    -28.1923   -28.248 0.005072
  9914 167529.7              212.36             206.868    -28.319   -28.3353 0.002318
  9927 167749.4              212.722             207.236    -28.4754   -28.4289      NaN
  9940 167969.1              213.089             207.604    -28.3215   -28.3658      NaN
  9953 168188.8              213.46             207.972    -28.3288   -28.4203      NaN
  9966 168408.5              213.83             208.34    -28.0966   -28.2585      NaN
  9979 168628.2              214.197             208.708    -27.5604   -27.7033      NaN
  9992 168847.9              214.558             209.077    -26.0964   -26.2474      NaN
 10005 169067.6              214.921             209.445    -24.3756   -24.592      NaN
 10018 169287.3              215.288             209.813    -23.3605   -23.522      NaN
 10031 169507.0              215.658             210.182    -22.5786   -22.7005      NaN
 10044 169726.7              216.028             210.551    -22.2009   -22.448      NaN
 10057 169946.4              216.393             210.921    -22.0945   -22.1931      NaN
 10070 170166.1              216.756             211.29    -21.8698   -21.8782      NaN
 10083 170385.8              217.118             211.658    -21.8107   -21.9236      NaN
 10096 170605.5              217.485             212.027    -21.9845   -22.0746      NaN
 10109 170825.2              217.853             212.395    -22.0666   -22.2264      NaN
 10122 171044.9              218.219             212.763    -22.1628   -22.3551      NaN
 10135 171264.6              218.586             213.132    -22.2381   -22.3331      NaN
 10148 171484.3              218.949             213.501    -21.9285   -22.2024      NaN
 10161 171704.0              219.314             213.869    -21.932   -22.1446      NaN
 10174 171923.7              219.68             214.237    -21.9242   -22.0382      NaN
 10187 172143.4              220.049             214.605    -22.0599   -22.2962      NaN
 10200 172363.1              220.418             214.973    -21.9349   -22.1449      NaN
 10213 172582.8              220.787             215.342    -21.9122   -22.04      NaN
 10226 172802.5              221.155             215.711    -21.9813   -21.9789      NaN
 10239 173022.2              221.516             216.08    -22.0995   -22.2226      NaN
 10252 173241.9              221.879             216.449    -22.1055   -22.2665      NaN
 10265 173461.6              222.245             216.818    -22.271   -22.525      NaN
 10278 173681.3              222.61             217.186    -22.2297   -22.4998      NaN
 10291 173901.0              222.978             217.554    -22.2283   -22.4538      NaN
 10304 174120.7              223.345             217.923    -22.225   -22.3963      NaN
 10317 174340.4              223.71             218.29    -22.3073   -22.5927      NaN
 10330 174560.1              224.077             218.658    -22.3327   -22.8068      NaN
 10343 174779.8              224.446             219.026    -22.401   -22.6925      NaN
 10356 174999.5              224.813             219.395    -22.4653   -22.7972      NaN
 10369 175219.2              225.178             219.764    -22.6237   -22.9264      NaN
 10382 175438.9              225.547             220.134    -22.569   -22.8481      NaN
 10395 175658.6              225.916             220.502    -22.4977   -22.9339      NaN
 10408 175878.3              226.283             220.872    -22.4632   -22.826      NaN
 10421 176098.0              226.648             221.242    -22.3322   -22.6049      NaN
 10434 176317.7              227.009             221.612    -22.5786   -23.0031      NaN
 10447 176537.4              227.371             221.981    -22.8219   -23.1363      NaN
 10460 176757.1              227.737             222.349    -22.5287   -22.9809      NaN
 10473 176976.8              228.107             222.719    -22.6   -22.9629      NaN
 10486 177196.5              228.476             223.088    -22.7169   -23.1171      NaN
 10499 177416.2              228.84             223.457    -22.8494   -23.1767      NaN
 10512 177635.9              229.201             223.826    -23.0103   -23.2725      NaN
 10525 177855.6              229.568             224.194    -22.6976   -23.0654      NaN
 10538 178075.3              229.936             224.563    -22.8394   -23.1147      NaN
 10551 178295.0              230.304             224.931    -22.8635   -23.2745      NaN
 10564 178514.7              230.672             225.3    -22.9449   -23.4464      NaN
 10577 178734.4              231.039             225.669    -22.908   -23.458      NaN
 10590 178954.1              231.405             226.039    -23.0542   -23.5265      NaN
 10603 179173.8              231.773             226.408    -23.1313   -23.4356      NaN
 10616 179393.5              232.137             226.777    -23.1046   -23.406      NaN
 10629 179613.2              232.497             227.147    -23.104   -23.4615      NaN
 10642 179832.9              232.861             227.515    -23.2952   -23.5928      NaN
 10655 180052.6              233.228             227.883    -23.3444   -23.6062      NaN
 10668 180272.3              233.598             228.25    -23.0886   -23.384      NaN
 10681 180492.0              233.968             228.619    -22.9737   -23.4756      NaN
 10694 180711.7              234.337             228.988    -23.1419   -23.5623      NaN
 10707 180931.4              234.702             229.357    -23.2193   -23.6777      NaN
 10720 181151.1              235.064             229.726    -23.2209   -23.502      NaN
 10733 181370.8              235.429             230.095    -23.3737   -23.5552      NaN
 10746 181590.5              235.797             230.463    -23.3434   -23.7829      NaN
 10759 181810.2              236.165             230.832    -23.3384   -23.8586      NaN
 10772 182029.9              236.53             231.2    -23.2512   -23.6783      NaN
 10785 182249.6              236.894             231.57    -23.3256   -23.8656      NaN
 10798 182469.3              237.26             231.938    -23.2827   -23.7181      NaN
 10811 182689.0              237.629             232.307    -23.4657   -23.8391      NaN
 10824 182908.7              237.996             232.676    -23.4206   -23.8047      NaN
 10837 183128.4              238.361             233.044    -23.3693   -23.7934      NaN
 10850 183348.1              238.727             233.414    -23.599   -24.0989      NaN
 10863 183567.8              239.092             233.783    -23.6263   -24.2249      NaN
 10876 183787.5              239.459             234.152    -23.6813   -24.1745      NaN
 10889 184007.2              239.825             234.52    -23.4964   -23.9155      NaN
 10902 184226.9              240.191             234.889    -23.5603   -23.9845      NaN
 10915 184446.6              240.555             235.258    -23.6493   -24.0311      NaN
 10928 184666.3              240.921             235.628    -23.6086   -24.0533      NaN
 10941 184886.0              241.288             235.995    -23.6161   -24.1225      NaN
 10954 185105.7              241.655             236.364    -23.6538   -24.0391      NaN
 10967 185325.4              242.021             236.733    -23.7266   -24.1003      NaN
 10980 185545.1              242.388             237.102    -23.8126   -24.2104      NaN
 10993 185764.8              242.755             237.47    -23.9556   -24.4081      NaN
 11006 185984.5              243.123             237.839    -23.9467   -24.4769      NaN
 11019 186204.2              243.488             238.208    -24.0516   -24.7516      NaN
 11032 186423.9              243.851             238.577    -23.9965   -24.8198      NaN
 11045 186643.6              244.218             238.946    -24.0357   -24.6189      NaN
 11058 186863.3              244.584             239.315    -23.989   -24.3734      NaN
 11071 187083.0              244.95             239.683    -24.0141   -24.3099      NaN
 11084 187302.7              245.315             240.052    -24.0855   -24.4544      NaN
 11097 187522.4              245.682             240.42    -24.0613   -24.4112      NaN
 11110 187742.1              246.049             240.788    -24.0484   -24.5207      NaN
 11123 187961.8              246.415             241.156    -24.1507   -24.54      NaN
 11136 188181.5              246.781             241.525    -24.085   -24.5778      NaN
 11149 188401.2              247.147             241.893    -24.1498   -24.5951      NaN
 11162 188620.9              247.512             242.262    -24.2319   -24.654      NaN
 11175 188840.6              247.881             242.631    -24.2353   -24.5307      NaN
 11188 189060.3              248.246             242.999    -24.3912   -24.7385      NaN
 11201 189280.0              248.612             243.366    -24.2619   -24.6705      NaN
 11214 189499.7              248.978             243.735    -24.1665   -24.5131      NaN
 11227 189719.4              249.344             244.103    -24.3886   -24.7188      NaN
 11240 189939.1              249.711             244.472    -24.3619   -24.6079      NaN
 11253 190158.8              250.077             244.84    -24.1504   -24.418      NaN
 11266 190378.5              250.444             245.209    -24.2749   -24.5877      NaN
 11279 190598.2              250.809             245.577    -24.3828   -24.7303      NaN
 11292 190817.9              251.175             245.946    -24.5469   -24.8956      NaN
 11305 191037.6              251.541             246.314    -24.6061   -25.0362      NaN
 11318 191257.3              251.908             246.682    -24.5185   -25.0461      NaN
 11331 191477.0              252.274             247.051    -24.5806   -25.0497      NaN
 11344 191696.7              252.639             247.418    -24.5699   -25.0334      NaN
 11357 191916.4              253.006             247.786    -24.7736   -25.234      NaN
 11370 192136.1              253.371             248.155    -24.81   -25.2712      NaN
 11383 192355.8              253.736             248.523    -24.8205   -25.2136      NaN
 11396 192575.5              254.105             248.891    -24.7719   -25.1705      NaN
 11409 192795.2              254.47             249.259    -24.6636   -24.9561      NaN
 11422 193014.9              254.838             249.627    -24.7404   -25.1408      NaN
 11435 193234.6              255.204             249.994    -24.719   -25.1004      NaN
 11448 193454.3              255.568             250.363    -24.8728   -25.3961      NaN
 11461 193674.0              255.935             250.73    -25.0087   -25.5131      NaN
 11474 193893.7              256.301             251.099    -24.9007   -25.42      NaN
 11487 194113.4              256.668             251.467    -24.9015   -25.3285      NaN
 11500 194333.1              257.035             251.836    -24.8479   -25.1912      NaN
 11513 194552.8              257.401             252.203    -24.9174   -25.2115      NaN
 11526 194772.5              257.766             252.572    -25.0182   -25.3813      NaN
 11539 194992.2              258.131             252.94    -25.1355   -25.5543      NaN
 11552 195211.9              258.498             253.308    -25.109   -25.5148      NaN
 11565 195431.6              258.865             253.676    -25.148   -25.5639      NaN
 11578 195651.3              259.229             254.044    -25.155   -25.5202      NaN
 11591 195871.0              259.596             254.413    -25.2314   -25.5697      NaN
 11604 196090.7              259.962             254.781    -25.2044   -25.5379      NaN
 11617 196310.4              260.329             255.148    -25.1994   -25.6181      NaN
 11630 196530.1              260.695             255.517    -25.2608   -25.7866      NaN
 11643 196749.8              261.061             255.884    -25.3785   -25.9301      NaN
 11656 196969.5              261.426             256.253    -25.4183   -25.8355      NaN
 11669 197189.2              261.793             256.62    -25.4094   -25.7665      NaN
 11682 197408.9              262.16             256.988    -25.4654   -25.8853      NaN
 11695 197628.6              262.526             257.356    -25.489   -25.9462      NaN
 11708 197848.3              262.892             257.724    -25.4166   -25.8233      NaN
 11721 198068.0              263.259             258.092    -25.5532   -25.9512      NaN
 11734 198287.7              263.626             258.46    -25.5904   -26.0592      NaN
 11747 198507.4              263.991             258.829    -25.6251   -26.0192      NaN
 11760 198727.1              264.355             259.195    -25.6746   -26.0964      NaN
 11773 198946.8              264.722             259.564    -25.6726   -26.1518      NaN
 11786 199166.5              265.086             259.93    -25.7069   -26.1994      NaN
 11799 199386.2              265.454             260.298    -25.6707   -26.1636      NaN
 11812 199605.9              265.822             260.666    -25.7345   -26.2205      NaN
 11825 199825.6              266.188             261.035    -25.8079   -26.3559      NaN
 11838 200045.3              266.553             261.402    -25.8156   -26.3336      NaN
 11851 200265.0              266.918             261.769    -25.8673   -26.454      NaN
 11864 200484.7              267.285             262.136    -25.9094   -26.4086      NaN
 11877 200704.4              267.652             262.505    -25.9392   -26.368      NaN
 11890 200924.1              268.019             262.872    -25.9154   -26.3291      NaN
 11903 201143.8              268.385             263.24    -26.0168   -26.4674      NaN
 11916 201363.5              268.75             263.607    -26.0994   -26.5845      NaN
 11929 201583.2              269.118             263.975    -26.1456   -26.7277      NaN
 11942 201802.9              269.483             264.343    -26.1063   -26.6386      NaN
 11955 202022.6              269.848             264.711    -26.1765   -26.6515      NaN
 11968 202242.3              270.215             265.078    -26.1565   -26.574      NaN
 11981 202462.0              270.582             265.445    -26.2355   -26.6967      NaN
 11994 202681.7              270.945             265.813    -26.3511   -26.8951      NaN
 12007 202901.4              271.309             266.181    -26.3628   -26.9484      NaN
 12020 203121.1              271.674             266.547    -26.3896   -26.9113      NaN
 12033 203340.8              272.04             266.914    -26.4138   -26.8848      NaN
 12046 203560.5              272.408             267.28    -26.4468   -26.9079      NaN
 12059 203780.2              272.777             267.647    -26.4532   -26.9016      NaN
 12072 203999.9              273.145             268.013    -26.5293   -26.9354      NaN
 12085 204219.6              273.511             268.38    -26.5959   -27.0308      NaN
 12098 204439.3              273.877             268.747    -26.6493   -27.114      NaN
 12111 204659.0              274.243             269.114    -26.6803   -27.1231      NaN
 12124 204878.7              274.61             269.481    -26.689   -27.152      NaN
 12137 205098.4              274.976             269.848    -26.7326   -27.219      NaN
 12150 205318.1              275.343             270.215    -26.7731   -27.2896      NaN
 12163 205537.8              275.709             270.583    -26.8357   -27.3452      NaN
 12176 205757.5              276.075             270.95    -26.9026   -27.42      NaN
 12189 205977.2              276.443             271.318    -26.9199   -27.4509      NaN
 12202 206196.9              276.81             271.686    -26.9403   -27.4552      NaN
 12215 206416.6              277.175             272.055    -26.9882   -27.4788      NaN
 12228 206636.3              277.542             272.423    -27.0667   -27.5779      NaN
 12241 206856.0              277.908             272.791    -27.1047   -27.6266      NaN
 12254 207075.7              278.274             273.159    -27.1454   -27.6568      NaN
 12267 207295.4              278.639             273.528    -27.1966   -27.7069      NaN
 12280 207515.1              279.005             273.896    -27.2456   -27.7396      NaN
 12293 207734.8              279.372             274.265    -27.248   -27.7449      NaN
 12306 207954.5              279.737             274.633    -27.275   -27.8097      NaN
 12319 208174.2              280.102             275.001    -27.3028   -27.8563      NaN
 12332 208393.9              280.468             275.369    -27.2899   -27.8051      NaN
 12345 208613.6              280.836             275.738    -27.3208   -27.7931      NaN
 12358 208833.3              281.202             276.105    -27.3296   -27.8054      NaN
 12371 209053.0              281.569             276.473    -27.3488   -27.8219      NaN
 12384 209272.7              281.934             276.841    -27.3531   -27.8077      NaN
 12397 209492.4              282.298             277.21    -27.4168   -27.9236      NaN
 12410 209712.1              282.664             277.579    -27.4956   -28.0005      NaN
 12423 209931.8              283.031             277.947    -27.5425   -28.0696      NaN
 12436 210151.5              283.397             278.314    -27.5592   -28.0533      NaN
 12449 210371.2              283.761             278.683    -27.552   -28.014      NaN
 12462 210590.9              284.129             279.05    -27.5463   -28.0155      NaN
 12475 210810.6              284.496             279.417    -27.5718   -28.0422      NaN
 12488 211030.3              284.863             279.784    -27.6158   -28.0844      NaN
 12501 211250.0              285.227             280.152    -27.633   -28.1231      NaN
 12514 211469.7              285.593             280.52    -27.6212   -28.0985      NaN
 12527 211689.4              285.96             280.887    -27.6247   -28.1119      NaN
 12540 211909.1              286.325             281.255    -27.6567   -28.1392      NaN
 12553 212128.8              286.689             281.622    -27.6655   -28.156      NaN
 12566 212348.5              287.053             281.988    -27.6487   -28.1329      NaN
 12579 212568.2              287.42             282.354    -27.6409   -28.1272      NaN
 12592 212787.9              287.787             282.721    -27.6574   -28.16      NaN
 12605 213007.6              288.154             283.087    -27.6769   -28.1734      NaN
 12618 213227.3              288.522             283.453    -27.6936   -28.1939      NaN
 12631 213447.0              288.892             283.82    -27.7263   -28.228      NaN
 12644 213666.7              289.259             284.187    -27.7362   -28.2444      NaN
 12657 213886.4              289.627             284.555    -27.7899   -28.2993      NaN
 12670 214106.1              289.994             284.923    -27.8567   -28.3648      NaN
 12683 214325.8              290.357             285.29    -27.9092   -28.4487      NaN
 12696 214545.5              290.723             285.658    -27.9549   -28.5026      NaN
 12709 214765.2              291.09             286.026    -27.9615   -28.5061      NaN
 12722 214984.9              291.452             286.393    -28.0191   -28.5619      NaN
 12735 215204.6              291.816             286.761    -28.0438   -28.5901      NaN
 12748 215424.3              292.18             287.128    -28.0342   -28.5992      NaN
 12761 215644.0              292.548             287.494    -28.0254   -28.5995      NaN
 12774 215863.7              292.916             287.861    -28.0451   -28.6136      NaN
 12787 216083.4              293.282             288.228    -28.0745   -28.6457      NaN
 12800 216303.1              293.649             288.594    -28.0799   -28.6735      NaN
 12813 216522.8              294.013             288.961    -28.1168   -28.7094      NaN
 12826 216742.5              294.381             289.326    -28.1514   -28.7418      NaN
 12839 216962.2              294.748             289.693    -28.1826   -28.7972      NaN
 12852 217181.9              295.116             290.06    -28.1891   -28.8002      NaN
 12865 217401.6              295.482             290.426    -28.1935   -28.8128      NaN
 12878 217621.3              295.847             290.793    -28.1963   -28.8396      NaN
 12891 217841.0              296.214             291.159    -28.1855   -28.8533      NaN
 12900 217993.1              296.468             291.412    -28.1946   -28.8722      NaN