File: archive/0.25Kmin_wrong_wt%/data/0wt%_climb_proc.txt
 Index  Time(s)  Furnace Temperature(K)  Sample Temperature(K)  HeatFlow(mW)  Q_Corrected  Fc
  8501  98600.0              127.951             118.226    -16.5424   -14.0644 NaN
  8508  98681.2              128.289             118.469    -16.757   -14.2484 NaN
  8515  98762.4              128.628             118.713    -16.958   -14.4391 NaN
  8522  98843.6              128.967             118.96    -17.1513   -14.6166 NaN
  8529  98924.8              129.307             119.209    -17.3375   -14.789 NaN
  8536  99006.0              129.645             119.461    -17.5441   -14.988 NaN
  8543  99087.2              129.984             119.714    -17.7202   -15.1408 NaN
  8550  99168.4              130.322             119.97    -17.8967   -15.3052 NaN
  8557  99249.6              130.661             120.228    -18.0889   -15.4827 NaN
  8564  99330.8              131.001             120.488    -18.2745   -15.6618 NaN
  8571  99412.0              131.34             120.749    -18.4295   -15.8086 NaN
  8578  99493.2              131.678             121.013    -18.6175   -15.9824 NaN
  8585  99574.4              132.017             121.279    -18.7765   -16.1229 NaN
  8592  99655.6              132.356             121.546    -18.9423   -16.2778 NaN
  8599  99736.8              132.695             121.815    -19.0944   -16.414 NaN
  8606  99818.0              133.033             122.086    -19.2622   -16.5893 NaN
  8613  99899.2              133.372             122.358    -19.4187   -16.7288 NaN
  8620  99980.4              133.71             122.632    -19.5722   -16.8736 NaN
  8627 100061.6              134.049             122.907    -19.7173   -17.0096 NaN
  8634 100142.8              134.387             123.184    -19.8652   -17.1329 NaN
  8641 100224.0              134.726             123.462    -20.0173   -17.2933 NaN
  8648 100305.2              135.065             123.743    -20.1556   -17.4262 NaN
  8655 100386.4              135.403             124.025    -20.2905   -17.5459 NaN
  8662 100467.6              135.742             124.308    -20.4319   -17.6735 NaN
  8669 100548.8              136.081             124.593    -20.5746   -17.822 NaN
  8676 100630.0              136.42             124.878    -20.7211   -17.9537 NaN
  8683 100711.2              136.759             125.165    -20.8381   -18.0588 NaN
  8690 100792.4              137.098             125.453    -20.9721   -18.1899 NaN
  8697 100873.6              137.436             125.742    -21.0915   -18.2958 NaN
  8704 100954.8              137.775             126.033    -21.2209   -18.4297 NaN
  8711 101036.0              138.113             126.324    -21.336   -18.5386 NaN
  8718 101117.2              138.449             126.618    -21.4733   -18.6611 NaN
  8725 101198.4              138.784             126.912    -21.5862   -18.7748 NaN
  8732 101279.6              139.119             127.206    -21.7042   -18.8879 NaN
  8739 101360.8              139.453             127.502    -21.8108   -18.994 NaN
  8746 101442.0              139.789             127.799    -21.9279   -19.1048 NaN
  8753 101523.2              140.125             128.096    -22.0291   -19.197 NaN
  8760 101604.4              140.463             128.394    -22.1315   -19.2976 NaN
  8767 101685.6              140.803             128.693    -22.2195   -19.3758 NaN
  8774 101766.8              141.142             128.992    -22.3316   -19.4938 NaN
  8781 101848.0              141.483             129.294    -22.4198   -19.5887 NaN
  8788 101929.2              141.824             129.595    -22.5327   -19.6823 NaN
  8795 102010.4              142.164             129.899    -22.6308   -19.768 NaN
  8802 102091.6              142.505             130.202    -22.7187   -19.8618 NaN
  8809 102172.8              142.845             130.507    -22.8235   -19.9744 NaN
  8816 102254.0              143.185             130.813    -22.9256   -20.0794 NaN
  8823 102335.2              143.525             131.119    -23.0217   -20.1585 NaN
  8830 102416.4              143.864             131.425    -23.1296   -20.2594 NaN
  8837 102497.6              144.204             131.733    -23.2146   -20.3526 NaN
  8844 102578.8              144.542             132.041    -23.3199   -20.4471 NaN
  8851 102660.0              144.88             132.351    -23.4064   -20.5359 NaN
  8858 102741.2              145.216             132.661    -23.5035   -20.6371 NaN
  8865 102822.4              145.555             132.971    -23.5891   -20.7148 NaN
  8872 102903.6              145.892             133.282    -23.6841   -20.8052 NaN
  8879 102984.8              146.232             133.595    -23.7649   -20.8828 NaN
  8886 103066.0              146.57             133.907    -23.8579   -20.9904 NaN
  8893 103147.2              146.909             134.22    -23.9361   -21.0643 NaN
  8900 103228.4              147.249             134.534    -24.0308   -21.1464 NaN
  8907 103309.6              147.59             134.848    -24.1198   -21.2298 NaN
  8914 103390.8              147.932             135.163    -24.208   -21.3289 NaN
  8921 103472.0              148.274             135.48    -24.2848   -21.4057 NaN
  8928 103553.2              148.615             135.797    -24.3771   -21.5035 NaN
  8935 103634.4              148.955             136.115    -24.4634   -21.59 NaN
  8942 103715.6              149.294             136.433    -24.55   -21.6682 NaN
  8949 103796.8              149.631             136.751    -24.6358   -21.7526 NaN
  8956 103878.0              149.969             137.07    -24.7287   -21.8572 NaN
  8963 103959.2              150.306             137.39    -24.8131   -21.9374 NaN
  8970 104040.4              150.643             137.71    -24.8954   -22.0163 NaN
  8977 104121.6              150.979             138.03    -24.9828   -22.0952 NaN
  8984 104202.8              151.316             138.351    -25.0565   -22.1767 NaN
  8991 104284.0              151.652             138.673    -25.1372   -22.2478 NaN
  8998 104365.2              151.988             138.995    -25.2076   -22.348 NaN
  9005 104446.4              152.324             139.317    -25.2868   -22.4168 NaN
  9012 104527.6              152.659             139.64    -25.3488   -22.4734 NaN
  9019 104608.8              152.995             139.962    -25.4276   -22.5527 NaN
  9026 104690.0              153.331             140.285    -25.49   -22.615 NaN
  9033 104771.2              153.669             140.608    -25.5548   -22.6901 NaN
  9040 104852.4              154.009             140.931    -25.6213   -22.7595 NaN
  9047 104933.6              154.348             141.255    -25.6755   -22.8105 NaN
  9054 105014.8              154.688             141.579    -25.7433   -22.8721 NaN
  9061 105096.0              155.028             141.905    -25.8047   -22.9411 NaN
  9068 105177.2              155.368             142.229    -25.8673   -23.0061 NaN
  9075 105258.4              155.709             142.555    -25.9409   -23.0867 NaN
  9082 105339.6              156.049             142.881    -25.9994   -23.1473 NaN
  9089 105420.8              156.39             143.207    -26.0773   -23.2169 NaN
  9096 105502.0              156.73             143.534    -26.1292   -23.2649 NaN
  9103 105583.2              157.07             143.861    -26.2071   -23.3533 NaN
  9110 105664.4              157.409             144.187    -26.27   -23.4175 NaN
  9117 105745.6              157.747             144.515    -26.3318   -23.4825 NaN
  9124 105826.8              158.087             144.844    -26.4108   -23.5547 NaN
  9131 105908.0              158.425             145.173    -26.4654   -23.6233 NaN
  9138 105989.2              158.762             145.501    -26.5449   -23.6975 NaN
  9145 106070.4              159.099             145.83    -26.5998   -23.7588 NaN
  9152 106151.6              159.436             146.159    -26.6708   -23.8266 NaN
  9159 106232.8              159.771             146.489    -26.7262   -23.8808 NaN
  9166 106314.0              160.108             146.818    -26.794   -23.9556 NaN
  9173 106395.2              160.444             147.148    -26.8421   -24.0064 NaN
  9180 106476.4              160.782             147.479    -26.9065   -24.0823 NaN
  9187 106557.6              161.121             147.808    -26.9691   -24.137 NaN
  9194 106638.8              161.46             148.139    -27.033   -24.1939 NaN
  9201 106720.0              161.799             148.47    -27.0873   -24.2571 NaN
  9208 106801.2              162.139             148.801    -27.144   -24.3215 NaN
  9215 106882.4              162.478             149.133    -27.1965   -24.3764 NaN
  9222 106963.6              162.818             149.464    -27.2609   -24.4437 NaN
  9229 107044.8              163.158             149.796    -27.3207   -24.5167 NaN
  9236 107126.0              163.496             150.128    -27.3742   -24.5758 NaN
  9243 107207.2              163.835             150.46    -27.4291   -24.6323 NaN
  9250 107288.4              164.172             150.792    -27.4897   -24.694 NaN
  9257 107369.6              164.51             151.125    -27.544   -24.7485 NaN
  9264 107450.8              164.846             151.458    -27.5997   -24.8094 NaN
  9271 107532.0              165.183             151.791    -27.6578   -24.8562 NaN
  9278 107613.2              165.52             152.124    -27.7094   -24.9232 NaN
  9285 107694.4              165.859             152.457    -27.7638   -24.9766 NaN
  9292 107775.6              166.199             152.79    -27.8219   -25.0505 NaN
  9299 107856.8              166.538             153.124    -27.8693   -25.1084 NaN
  9306 107938.0              166.878             153.457    -27.925   -25.1605 NaN
  9313 108019.2              167.217             153.791    -27.9707   -25.2014 NaN
  9320 108100.4              167.556             154.125    -28.0302   -25.2737 NaN
  9327 108181.6              167.894             154.46    -28.0792   -25.3287 NaN
  9334 108262.8              168.233             154.794    -28.1342   -25.3804 NaN
  9341 108344.0              168.571             155.129    -28.1898   -25.4319 NaN
  9348 108425.2              168.91             155.463    -28.2443   -25.5051 NaN
  9355 108506.4              169.248             155.798    -28.2932   -25.5693 NaN
  9362 108587.6              169.586             156.133    -28.342   -25.619 NaN
  9369 108668.8              169.925             156.467    -28.4031   -25.6848 NaN
  9376 108750.0              170.262             156.803    -28.4464   -25.7391 NaN
  9383 108831.2              170.598             157.138    -28.5014   -25.7962 NaN
  9390 108912.4              170.937             157.474    -28.5502   -25.8456 NaN
  9397 108993.6              171.274             157.81    -28.6041   -25.9103 NaN
  9404 109074.8              171.613             158.145    -28.6525   -25.9597 NaN
  9411 109156.0              171.951             158.48    -28.7131   -26.0228 NaN
  9418 109237.2              172.291             158.816    -28.7497   -26.0694 NaN
  9425 109318.4              172.629             159.152    -28.8064   -26.133 NaN
  9432 109399.6              172.969             159.487    -28.8501   -26.184 NaN
  9439 109480.8              173.308             159.824    -28.9026   -26.2391 NaN
  9446 109562.0              173.646             160.161    -28.9589   -26.2919 NaN
  9453 109643.2              173.985             160.497    -29.0023   -26.3452 NaN
  9460 109724.4              174.323             160.834    -29.0604   -26.4236 NaN
  9467 109805.6              174.661             161.171    -29.1027   -26.4779 NaN
  9474 109886.8              174.997             161.507    -29.1558   -26.5325 NaN
  9481 109968.0              175.334             161.844    -29.2006   -26.5681 NaN
  9488 110049.2              175.671             162.18    -29.2462   -26.6301 NaN
  9495 110130.4              176.007             162.516    -29.294   -26.6823 NaN
  9502 110211.6              176.345             162.854    -29.3463   -26.7481 NaN
  9509 110292.8              176.684             163.19    -29.3902   -26.8059 NaN
  9516 110374.0              177.023             163.527    -29.4387   -26.8542 NaN
  9523 110455.2              177.362             163.865    -29.488   -26.9191 NaN
  9530 110536.4              177.703             164.201    -29.5324   -26.9647 NaN
  9537 110617.6              178.043             164.539    -29.5832   -27.0228 NaN
  9544 110698.8              178.382             164.875    -29.6244   -27.0742 NaN
  9551 110780.0              178.721             165.213    -29.683   -27.1309 NaN
  9558 110861.2              179.059             165.55    -29.7259   -27.1912 NaN
  9565 110942.4              179.398             165.888    -29.7774   -27.2501 NaN
  9572 111023.6              179.736             166.226    -29.8293   -27.3187 NaN
  9579 111104.8              180.075             166.564    -29.8816   -27.3722 NaN
  9586 111186.0              180.414             166.901    -29.9323   -27.4351 NaN
  9593 111267.2              180.752             167.24    -29.9808   -27.4835 NaN
  9600 111348.4              181.089             167.578    -30.0345   -27.5492 NaN
  9607 111429.6              181.427             167.916    -30.0761   -27.5874 NaN
  9614 111510.8              181.764             168.254    -30.1294   -27.65 NaN
  9621 111592.0              182.101             168.592    -30.1764   -27.7027 NaN
  9628 111673.2              182.44             168.931    -30.2272   -27.7601 NaN
  9635 111754.4              182.779             169.269    -30.2758   -27.826 NaN
  9642 111835.6              183.118             169.608    -30.331   -27.8988 NaN
  9649 111916.8              183.457             169.947    -30.3792   -27.9253 NaN
  9656 111998.0              183.796             170.286    -30.4293   -27.9765 NaN
  9663 112079.2              184.134             170.625    -30.4835   -28.0458 NaN
  9670 112160.4              184.472             170.965    -30.535   -28.1216 NaN
  9677 112241.6              184.81             171.304    -30.5876   -28.1687 NaN
  9684 112322.8              185.148             171.643    -30.6468   -28.2458 NaN
  9691 112404.0              185.487             171.983    -30.6952   -28.2949 NaN
  9698 112485.2              185.825             172.323    -30.7496   -28.3562 NaN
  9705 112566.4              186.163             172.662    -30.798   -28.4291 NaN
  9712 112647.6              186.501             173.003    -30.8531   -28.4823 NaN
  9719 112728.8              186.838             173.343    -30.8928   -28.5095 NaN
  9726 112810.0              187.175             173.683    -30.9514   -28.574 NaN
  9733 112891.2              187.514             174.023    -31.0011   -28.6464 NaN
  9740 112972.4              187.853             174.363    -31.0544   -28.7018 NaN
  9747 113053.6              188.191             174.703    -31.1084   -28.7712 NaN
  9754 113134.8              188.53             175.043    -31.1634   -28.8505 NaN
  9761 113216.0              188.87             175.384    -31.2117   -28.9193 1.0
  9768 113297.2              189.209             175.725    -31.2617   -28.9787 1.0
  9775 113378.4              189.548             176.065    -31.3158   -29.0447 1.0
  9782 113459.6              189.885             176.407    -31.3644   -29.1112 1.0
  9789 113540.8              190.224             176.748    -31.4213   -29.1734 1.0
  9796 113622.0              190.562             177.088    -31.4748   -29.2473 1.0
  9803 113703.2              190.901             177.429    -31.5215   -29.2793 1.0
  9810 113784.4              191.239             177.771    -31.571   -29.3361 1.0
  9817 113865.6              191.577             178.112    -31.6117   -29.4075 1.0
  9824 113946.8              191.915             178.453    -31.6716   -29.4781 1.0
  9831 114028.0              192.251             178.795    -31.7159   -29.5285 1.0
  9838 114109.2              192.589             179.137    -31.7675   -29.5886 1.0
  9845 114190.4              192.927             179.478    -31.8125   -29.625 1.0
  9852 114271.6              193.265             179.82    -31.87   -29.6851 1.0
  9859 114352.8              193.604             180.161    -31.924   -29.7767 1.0
  9866 114434.0              193.942             180.503    -31.9674   -29.8415 1.0
  9873 114515.2              194.281             180.845    -32.0224   -29.8908 1.0
  9880 114596.4              194.62             181.186    -32.0724   -29.9497 1.0
  9887 114677.6              194.96             181.529    -32.1239   -30.0054 1.0
  9894 114758.8              195.298             181.87    -32.1684   -30.0846 1.0
  9901 114840.0              195.636             182.212    -32.2195   -30.1439 1.0
  9908 114921.2              195.975             182.555    -32.2755   -30.2087 1.0
  9915 115002.4              196.312             182.897    -32.3192   -30.2453 1.0
  9922 115083.6              196.652             183.239    -32.3659   -30.2853 1.0
  9929 115164.8              196.991             183.581    -32.4108   -30.3457 1.0
  9936 115246.0              197.329             183.924    -32.4505   -30.4159 1.0
  9943 115327.2              197.668             184.266    -32.4924   -30.4631 1.0
  9950 115408.4              198.005             184.609    -32.5507   -30.5157 1.0
  9957 115489.6              198.343             184.952    -32.6107   -30.5743 1.0
  9964 115570.8              198.682             185.295    -32.6609   -30.668 1.0
  9971 115652.0              199.02             185.637    -32.7151   -30.7278 1.0
  9978 115733.2              199.359             185.98    -32.7592   -30.7932 1.0
  9985 115814.4              199.696             186.323    -32.8036   -30.823 1.0
  9992 115895.6              200.034             186.666    -32.8459   -30.9009 1.0
  9999 115976.8              200.373             187.009    -32.8882   -30.9543 1.0
 10006 116058.0              200.711             187.351    -32.925   -31.038 1.0
 10013 116139.2              201.049             187.694    -32.973   -31.076 1.0
 10020 116220.4              201.388             188.037    -33.0193   -31.0832 1.0
 10027 116301.6              201.726             188.381    -33.068   -31.1079 1.0
 10034 116382.8              202.066             188.724    -33.1074   -31.1192 1.0
 10041 116464.0              202.404             189.066    -33.1611   -31.2181 1.0
 10048 116545.2              202.742             189.41    -33.2027   -31.3311 1.0
 10055 116626.4              203.08             189.753    -33.2532   -31.3555 1.0
 10062 116707.6              203.419             190.097    -33.3188   -31.3983 1.0
 10069 116788.8              203.757             190.44    -33.3692   -31.4456 1.0
 10076 116870.0              204.095             190.783    -33.407   -31.4603 1.0
 10083 116951.2              204.434             191.126    -33.4441   -31.5378 1.0
 10090 117032.4              204.771             191.471    -33.5036   -31.6483 1.0
 10097 117113.6              205.109             191.814    -33.5582   -31.7415 1.0
 10104 117194.8              205.447             192.158    -33.5824   -31.8386 1.0
 10111 117276.0              205.786             192.501    -33.6384   -31.9065 1.0
 10118 117357.2              206.125             192.845    -33.6827   -31.9294 1.0
 10125 117438.4              206.464             193.188    -33.7383   -31.9757 1.0
 10132 117519.6              206.803             193.532    -33.7612   -32.0077 1.0
 10139 117600.8              207.141             193.876    -33.8227   -32.0887 1.0
 10146 117682.0              207.479             194.22    -33.889   -32.1697 1.0
 10153 117763.2              207.818             194.564    -33.9258   -32.1667 1.0
 10160 117844.4              208.157             194.907    -33.9924   -32.1942 1.0
 10167 117925.6              208.495             195.252    -34.0388   -32.2359 1.0
 10174 118006.8              208.833             195.596    -34.0744   -32.282 1.0
 10181 118088.0              209.171             195.94    -34.1106   -32.3375 1.0
 10188 118169.2              209.508             196.283    -34.1663   -32.4458 1.0
 10195 118250.4              209.847             196.628    -34.2333   -32.5718 1.0
 10202 118331.6              210.187             196.972    -34.2999   -32.6452 1.0
 10209 118412.8              210.525             197.316    -34.336   -32.6984 1.0
 10216 118494.0              210.863             197.66    -34.3808   -32.8007 1.0
 10223 118575.2              211.202             198.005    -34.4353   -32.9006 1.0
 10230 118656.4              211.539             198.349    -34.4502   -32.8642 1.0
 10237 118737.6              211.876             198.694    -34.4677   -32.7836 1.0
 10244 118818.8              212.213             199.037    -34.5214   -32.803 1.0
 10251 118900.0              212.55             199.381    -34.5872   -32.9264 1.0
 10258 118981.2              212.887             199.725    -34.633   -32.9769 1.0
 10265 119062.4              213.226             200.068    -34.6955   -33.0236 1.0
 10272 119143.6              213.564             200.413    -34.7177   -33.0532 1.0
 10279 119224.8              213.902             200.757    -34.7377   -33.0303 1.0
 10286 119306.0              214.241             201.102    -34.7556   -33.0804 1.0
 10293 119387.2              214.58             201.446    -34.8124   -33.1576 1.0
 10300 119468.4              214.919             201.79    -34.8759   -33.2105 1.0
 10307 119549.6              215.258             202.134    -34.9419   -33.2575 1.0
 10314 119630.8              215.597             202.478    -35.0155   -33.2792 1.0
 10321 119712.0              215.936             202.822    -35.0632   -33.4299 1.0
 10328 119793.2              216.276             203.166    -35.1195   -33.4847 1.0
 10335 119874.4              216.614             203.511    -35.1421   -33.5661 1.0
 10342 119955.6              216.952             203.855    -35.2165   -33.6001 1.0
 10349 120036.8              217.291             204.2    -35.2613   -33.6958 1.0
 10356 120118.0              217.629             204.544    -35.2942   -33.7597 1.0
 10363 120199.2              217.966             204.889    -35.3423   -33.8855 1.0
 10370 120280.4              218.306             205.232    -35.3975   -33.9784 1.0
 10377 120361.6              218.644             205.577    -35.4282   -34.0412 1.0
 10384 120442.8              218.983             205.922    -35.4784   -34.198 1.0
 10391 120524.0              219.322             206.266    -35.4915   -34.2431 1.0
 10398 120605.2              219.66             206.611    -35.558   -34.2564 1.0
 10405 120686.4              219.998             206.955    -35.6068   -34.2615 1.0
 10412 120767.6              220.336             207.3    -35.6464   -34.2754 1.0
 10419 120848.8              220.672             207.644    -35.6844   -34.2892 1.0
 10426 120930.0              221.009             207.989    -35.7312   -34.2749 1.0
 10433 121011.2              221.346             208.333    -35.7625   -34.3247 1.0
 10440 121092.4              221.684             208.677    -35.7974   -34.3153 1.0
 10447 121173.6              222.022             209.022    -35.825   -34.3626 1.0
 10454 121254.8              222.361             209.366    -35.8108   -34.3113 1.0
 10461 121336.0              222.699             209.71    -35.8485   -34.2865 1.0
 10468 121417.2              223.038             210.054    -35.8994   -34.3155 1.0
 10475 121498.4              223.378             210.399    -35.9732   -34.432 1.0
 10482 121579.6              223.717             210.743    -36.0473   -34.5564 1.0
 10489 121660.8              224.057             211.088    -36.1142   -34.6315 1.0
 10496 121742.0              224.396             211.433    -36.1679   -34.7519 1.0
 10503 121823.2              224.736             211.777    -36.2054   -34.7985 1.0
 10510 121904.4              225.075             212.121    -36.2368   -34.9126 1.0
 10517 121985.6              225.415             212.466    -36.301   -35.0019 1.0
 10524 122066.8              225.753             212.81    -36.3581   -35.0095 1.0
 10531 122148.0              226.09             213.155    -36.4262   -34.9352 1.0
 10538 122229.2              226.427             213.5    -36.5089   -34.9955 1.0
 10545 122310.4              226.764             213.845    -36.5862   -35.0378 1.0
 10552 122391.6              227.1             214.19    -36.6297   -35.0852 1.0
 10559 122472.8              227.438             214.535    -36.6949   -35.3116 1.0
 10566 122554.0              227.776             214.879    -36.731   -35.4591 1.0
 10573 122635.2              228.115             215.224    -36.7872   -35.5512 1.0
 10580 122716.4              228.453             215.568    -36.8465   -35.6354 1.0
 10587 122797.6              228.793             215.913    -36.8644   -35.7286 1.0
 10594 122878.8              229.132             216.258    -36.8677   -35.6801 1.0
 10601 122960.0              229.47             216.602    -36.9003   -35.7064 1.0
 10608 123041.2              229.807             216.947    -36.9362   -35.7479 1.0
 10615 123122.4              230.145             217.292    -36.9765   -35.6845 1.0
 10622 123203.6              230.484             217.636    -36.9738   -35.6963 1.0
 10629 123284.8              230.822             217.981    -37.0072   -35.7245 1.0
 10636 123366.0              231.161             218.325    -37.0841   -35.7999 1.0
 10643 123447.2              231.499             218.67    -37.1367   -35.9089 1.0
 10650 123528.4              231.836             219.014    -37.2184   -36.0171 1.0
 10657 123609.6              232.175             219.359    -37.2691   -36.0755 1.0
 10664 123690.8              232.514             219.703    -37.3152   -36.2094 1.0
 10671 123772.0              232.853             220.048    -37.3839   -36.3152 1.0
 10678 123853.2              233.191             220.393    -37.416   -36.2977 1.0
 10685 123934.4              233.531             220.737    -37.4323   -36.3238 1.0
 10692 124015.6              233.87             221.082    -37.4471   -36.3622 1.0
 10699 124096.8              234.209             221.427    -37.5387   -36.4469 1.0
 10706 124178.0              234.548             221.77    -37.6301   -36.5157 1.0
 10713 124259.2              234.886             222.116    -37.681   -36.7472 1.0
 10720 124340.4              235.224             222.46    -37.6661   -36.6915 1.0
 10727 124421.6              235.563             222.806    -37.6925   -36.7311 1.0
 10734 124502.8              235.901             223.151    -37.7381   -36.7882 1.0
 10741 124584.0              236.241             223.495    -37.813   -36.9153 1.0
 10748 124665.2              236.58             223.84    -37.8716   -36.9554 1.0
 10755 124746.4              236.919             224.185    -37.899   -36.9904 1.0
 10762 124827.6              237.258             224.53    -37.9821   -37.0665 1.0
 10769 124908.8              237.596             224.875    -38.0689   -37.1378 1.0
 10776 124990.0              237.935             225.22    -38.1158   -37.2494 1.0
 10783 125071.2              238.273             225.566    -38.1992   -37.3805 1.0
 10790 125152.4              238.61             225.911    -38.2342   -37.3667 1.0
 10797 125233.6              238.947             226.257    -38.1894   -37.26 1.0
 10804 125314.8              239.284             226.601    -38.2052   -37.2361 1.0
 10811 125396.0              239.62             226.946    -38.2784   -37.4226 1.0
 10818 125477.2              239.958             227.292    -38.335   -37.5297 1.0
 10825 125558.4              240.296             227.636    -38.3916   -37.5843 1.0
 10832 125639.6              240.634             227.981    -38.4686   -37.6974 1.0
 10839 125720.8              240.973             228.327    -38.5454   -37.6784 1.0
 10846 125802.0              241.313             228.671    -38.6157   -37.6803 1.0
 10853 125883.2              241.651             229.016    -38.6811   -37.6473 1.0
 10860 125964.4              241.988             229.361    -38.7199   -37.6878 1.0
 10867 126045.6              242.327             229.707    -38.7535   -37.7421 1.0
 10874 126126.8              242.665             230.051    -38.8327   -37.8219 1.0
 10881 126208.0              243.003             230.396    -38.8966   -37.8303 1.0
 10888 126289.2              243.341             230.74    -38.9151   -37.8906 1.0
 10895 126370.4              243.679             231.086    -38.9124   -38.0131 1.0
 10902 126451.6              244.018             231.431    -38.9304   -38.049 1.0
 10909 126532.8              244.356             231.775    -38.9685   -38.0402 1.0
 10916 126614.0              244.694             232.119    -38.991   -38.0654 1.0
 10923 126695.2              245.033             232.465    -39.0628   -38.1222 1.0
 10930 126776.4              245.371             232.81    -39.1389   -38.2435 1.0
 10937 126857.6              245.709             233.155    -39.2282   -38.2913 1.0
 10944 126938.8              246.049             233.5    -39.2582   -38.3451 1.0
 10951 127020.0              246.387             233.843    -39.2604   -38.391 1.0
 10958 127101.2              246.725             234.187    -39.3231   -38.5716 1.0
 10965 127182.4              247.062             234.532    -39.4115   -38.6634 1.0
 10972 127263.6              247.401             234.877    -39.4528   -38.676 1.0
 10979 127344.8              247.739             235.222    -39.4852   -38.7438 1.0
 10986 127426.0              248.078             235.567    -39.5094   -38.8127 1.0
 10993 127507.2              248.416             235.913    -39.5207   -38.8693 1.0
 11000 127588.4              248.755             236.258    -39.5628   -38.8718 1.0
 11007 127669.6              249.094             236.603    -39.6291   -38.9066 1.0
 11014 127750.8              249.432             236.947    -39.7108   -38.9142 1.0
 11021 127832.0              249.771             237.292    -39.7734   -38.864 1.0
 11028 127913.2              250.109             237.637    -39.8699   -38.9597 1.0
 11035 127994.4              250.448             237.982    -39.9384   -38.9494 1.0
 11042 128075.6              250.787             238.327    -39.9968   -39.1874 1.0
 11049 128156.8              251.126             238.672    -40.0541   -39.2415 1.0
 11056 128238.0              251.464             239.016    -40.1163   -39.2912 1.0
 11063 128319.2              251.803             239.362    -40.1666   -39.4476 1.0
 11070 128400.4              252.141             239.706    -40.2199   -39.6258 1.0
 11077 128481.6              252.479             240.051    -40.2684   -39.5923 1.0
 11084 128562.8              252.818             240.396    -40.3286   -39.6948 1.0
 11091 128644.0              253.156             240.741    -40.3615   -39.8595 1.0
 11098 128725.2              253.495             241.086    -40.4126   -40.0461 1.0
 11105 128806.4              253.834             241.431    -40.412   -40.1696 1.0
 11112 128887.6              254.174             241.776    -40.4618   -40.2312 1.0
 11119 128968.8              254.512             242.121    -40.4387   -40.1506 1.0
 11126 129050.0              254.851             242.466    -40.4301   -40.0184 1.0
 11133 129131.2              255.191             242.812    -40.5022   -39.9415 1.0
 11140 129212.4              255.529             243.157    -40.5674   -40.0134 1.0
 11147 129293.6              255.868             243.502    -40.647   -40.0647 1.0
 11154 129374.8              256.206             243.848    -40.7424   -40.1136 1.0
 11161 129456.0              256.544             244.193    -40.8501   -40.228 1.0
 11168 129537.2              256.882             244.538    -40.9169   -40.288 1.0
 11175 129618.4              257.219             244.884    -40.9958   -40.5143 1.0
 11182 129699.6              257.557             245.229    -41.0565   -40.7484 1.0
 11189 129780.8              257.893             245.575    -41.1029   -40.9223 1.0
 11196 129862.0              258.231             245.919    -41.1191   -40.8601 1.0
 11203 129943.2              258.568             246.265    -41.1659   -40.8905 1.0
 11210 130024.4              258.907             246.61    -41.1973   -40.7844 1.0
 11217 130105.6              259.246             246.955    -41.2338   -40.8257 1.0
 11224 130186.8              259.584             247.3    -41.2847   -41.0751 1.0
 11231 130268.0              259.923             247.646    -41.3348   -41.1646 1.0
 11238 130349.2              260.261             247.991    -41.4016   -41.1682 1.0
 11245 130430.4              260.599             248.336    -41.415   -41.2828 1.0
 11252 130511.6              260.938             248.681    -41.4824   -41.2507 1.0
 11259 130592.8              261.274             249.027    -41.5388   -41.2748 1.0
 11266 130674.0              261.612             249.371    -41.5727   -41.427 1.0
 11273 130755.2              261.95             249.716    -41.6172   -41.3825 1.0
 11280 130836.4              262.287             250.062    -41.6623   -41.4308 1.0
 11287 130917.6              262.627             250.406    -41.7092   -41.5367 1.0
 11294 130998.8              262.964             250.751    -41.758   -41.6724 1.0
 11301 131080.0              263.303             251.095    -41.8313   -41.891 1.0
 11308 131161.2              263.642             251.44    -41.8841   -41.9256 1.0
 11315 131242.4              263.98             251.785    -41.9109   -41.8251 1.0
 11322 131323.6              264.32             252.13    -41.9616   -41.7295 1.0
 11329 131404.8              264.658             252.475    -42.0356   -41.8563 1.0
 11336 131486.0              264.996             252.819    -42.0899   -41.9268 1.0
 11343 131567.2              265.335             253.165    -42.1531   -42.0115 1.0
 11350 131648.4              265.673             253.51    -42.1726   -41.9724 1.0
 11357 131729.6              266.012             253.854    -42.2165   -42.0206 1.0
 11364 131810.8              266.351             254.2    -42.2907   -42.1226 1.0
 11371 131892.0              266.691             254.544    -42.3614   -42.0757 1.0
 11378 131973.2              267.031             254.889    -42.4317   -42.1926 1.0
 11385 132054.4              267.369             255.234    -42.4742   -42.4656 1.0
 11392 132135.6              267.706             255.579    -42.5401   -42.5421 1.0
 11399 132216.8              268.045             255.923    -42.6239   -42.5867 1.0
 11406 132298.0              268.382             256.269    -42.697   -42.7508 1.0
 11413 132379.2              268.72             256.613    -42.7455   -42.8407 1.0
 11420 132460.4              269.058             256.959    -42.7903   -42.8133 1.0
 11427 132541.6              269.394             257.303    -42.8205   -42.9705 1.0
 11434 132622.8              269.733             257.648    -42.8607   -43.1027 1.0
 11441 132704.0              270.071             257.994    -42.9114   -43.2812 1.0
 11448 132785.2              270.41             258.339    -42.9492   -43.1716 1.0
 11455 132866.4              270.748             258.683    -43.0247   -43.1314 1.0
 11462 132947.6              271.087             259.028    -43.0728   -43.1745 1.0
 11469 133028.8              271.426             259.373    -43.1379   -43.3506 1.0
 11476 133110.0              271.763             259.717    -43.2113   -43.5631 1.0
 11483 133191.2              272.101             260.062    -43.2859   -43.6257 1.0
 11490 133272.4              272.439             260.407    -43.3391   -43.7021 1.0
 11497 133353.6              272.777             260.751    -43.3699   -43.7949 1.0
 11504 133434.8              273.115             261.097    -43.4251   -43.9302 1.0
 11511 133516.0              273.453             261.441    -43.4964   -44.2682 1.0
 11518 133597.2              273.792             261.785    -43.5674   -44.448 1.0
 11525 133678.4              274.13             262.13    -43.6309   -44.5649 1.0
 11532 133759.6              274.47             262.474    -43.6907   -44.6463 1.0
 11539 133840.8              274.808             262.819    -43.7541   -44.6137 1.0
 11546 133922.0              275.147             263.163    -43.8185   -44.7172 1.0
 11553 134003.2              275.486             263.508    -43.8837   -44.8929 1.0
 11560 134084.4              275.824             263.852    -43.9471   -44.6085 1.0
 11567 134165.6              276.163             264.197    -43.9896   -44.7757 1.0
 11574 134246.8              276.501             264.542    -44.063   -45.0874 1.0
 11581 134328.0              276.841             264.886    -44.1336   -45.1572 1.0
 11588 134409.2              277.178             265.23    -44.2092   -45.0668 1.0
 11595 134490.4              277.516             265.575    -44.2726   -45.0837 1.0
 11602 134571.6              277.855             265.919    -44.3503   -45.1127 1.0
 11609 134652.8              278.194             266.264    -44.4241   -45.3152 1.0
 11616 134734.0              278.533             266.609    -44.5002   -45.2746 1.0
 11623 134815.2              278.87             266.954    -44.5684   -45.4487 1.0
 11630 134896.4              279.208             267.298    -44.6403   -45.5579 1.0
 11637 134977.6              279.545             267.643    -44.7133   -45.5433 1.0
 11644 135058.8              279.882             267.987    -44.7882   -45.5964 1.0
 11651 135140.0              280.22             268.332    -44.8679   -45.5471 1.0
 11658 135221.2              280.559             268.677    -44.9381   -45.571 1.0
 11665 135302.4              280.897             269.021    -45.021   -45.6127 1.0
 11672 135383.6              281.236             269.364    -45.1071   -45.677 1.0
 11679 135464.8              281.575             269.709    -45.1845   -45.7557 1.0
 11686 135546.0              281.914             270.053    -45.284   -46.1138 1.0
 11693 135627.2              282.253             270.398    -45.3789   -46.2033 1.0
 11700 135708.4              282.592             270.743    -45.4812   -46.0879 1.0
 11707 135789.6              282.93             271.087    -45.591   -46.1031 1.0
 11714 135870.8              283.269             271.432    -45.6923   -46.3851 1.0
 11721 135952.0              283.608             271.776    -45.7948   -46.5139 1.0
 11728 136033.2              283.945             272.12    -45.9085   -46.6422 1.0
 11735 136114.4              284.283             272.465    -46.0447   -46.8777 1.0
 11742 136195.6              284.622             272.809    -46.1931   -47.3113 1.0
 11749 136276.8              284.959             273.153    -46.3741   -47.4864 NaN
 11756 136358.0              285.297             273.498    -46.6382   -47.6603 NaN
 11763 136439.2              285.636             273.843    -47.1043   -48.0735 NaN
 11770 136520.4              285.974             274.187    -48.5192   -49.339 NaN
 11777 136601.6              286.313             274.531    -56.2884   -57.0162 NaN
 11784 136682.8              286.651             274.876   -101.222  -101.867 NaN
 11791 136764.0              286.989             275.218   -161.762  -162.421 NaN
 11798 136845.2              287.328             275.56   -216.017  -216.587 NaN
 11805 136926.4              287.666             275.902   -273.24  -273.933 NaN
 11812 137007.6              288.005             276.242   -331.612  -332.667 NaN
 11819 137088.8              288.344             276.582   -389.885  -390.98 NaN
 11826 137170.0              288.681             276.922   -447.371  -448.379 NaN
 11833 137251.2              289.018             277.261   -503.89  -504.863 NaN
 11840 137332.4              289.355             277.599   -559.481  -560.385 NaN
 11847 137413.6              289.692             277.937   -614.03  -614.805 NaN
 11854 137494.8              290.031             278.274   -665.586  -666.551 NaN
 11861 137576.0              290.369             278.61   -713.456  -714.734 NaN
 11868 137657.2              290.707             278.947   -759.812  -760.857 NaN
 11875 137738.4              291.046             279.282   -802.194  -803.205 NaN
 11882 137819.6              291.385             279.617   -841.897  -843.019 NaN
 11889 137900.8              291.725             279.952   -880.418  -881.439 NaN
 11896 137982.0              292.063             280.287   -914.55  -915.558 NaN
 11903 138063.2              292.403             280.623   -945.21  -946.241 NaN
 11910 138144.4              292.741             280.957   -973.484  -974.579 NaN
 11917 138225.6              293.081             281.292   -999.328 -1000.39 NaN
 11924 138306.8              293.418             281.627  -1025.51 -1026.64 NaN
 11931 138388.0              293.758             281.961  -1046.77 -1047.93 NaN
 11938 138469.2              294.094             282.296  -1049.92 -1050.97 NaN
 11945 138550.4              294.432             282.631  -1036.39 -1037.58 NaN
 11952 138631.6              294.767             282.967  -1005.24 -1006.7 NaN
 11959 138712.8              295.104             283.303   -946.62  -948.077 NaN
 11966 138794.0              295.441             283.641   -913.427  -914.897 NaN
 11973 138875.2              295.778             283.979   -847.274  -848.635 NaN
 11980 138956.4              296.117             284.319   -771.224  -772.661 NaN
 11987 139037.6              296.456             284.66   -652.895  -654.21 NaN
 11994 139118.8              296.795             285.002   -527.338  -528.771 NaN
 12001 139200.0              297.133             285.346   -431.567  -432.919 NaN
 12008 139281.2              297.473             285.691   -356.068  -357.259 NaN
 12015 139362.4              297.813             286.037   -296.941  -298.271 NaN
 12022 139443.6              298.15             286.383   -250.927  -252.279 NaN
 12029 139524.8              298.49             286.731   -215.256  -216.622 NaN
 12036 139606.0              298.827             287.078   -187.608  -188.979 NaN
 12043 139687.2              299.167             287.425   -166.177  -167.509 NaN
 12050 139768.4              299.321             287.771   -149.481  -150.909 NaN
 12057 139849.6              299.32             288.109   -136.448  -137.953 NaN
 12064 139930.8              299.303             288.437   -126.246  -127.722 NaN
 12071 140012.0              299.28             288.756   -118.101  -119.512 NaN
 12078 140093.2              299.258             289.064   -111.47  -112.831 NaN
 12085 140174.4              299.239             289.362   -105.875  -107.162 NaN
 12092 140255.6              299.223             289.65   -101.055  -102.26 NaN
 12099 140336.8              299.211             289.928    -96.8227   -98.3731 NaN
 12100 140348.4              299.209             289.966    -96.2571   -97.8191 NaN