File: archive/0.25Kmin_wrong_wt%/data/6wt%_climb_proc.txt
 Index  Time(s)  Furnace Temperature(K)  Sample Temperature(K)  HeatFlow(mW)  Q_Corrected       Fc
  8501  98600.0              127.957             117.924    -17.6184   -15.1404      NaN
  8508  98681.2              128.296             118.175    -17.8744   -15.3659      NaN
  8515  98762.4              128.635             118.427    -18.1658   -15.6469      NaN
  8522  98843.6              128.974             118.683    -18.438   -15.9033      NaN
  8529  98924.8              129.312             118.938    -18.7312   -16.1827      NaN
  8536  99006.0              129.649             119.197    -19.0335   -16.4774      NaN
  8543  99087.2              129.986             119.457    -19.3563   -16.7769      NaN
  8550  99168.4              130.325             119.72    -19.6793   -17.0877      NaN
  8557  99249.6              130.663             119.984    -20.0311   -17.4248      NaN
  8564  99330.8              131.003             120.251    -20.3909   -17.7782      NaN
  8571  99412.0              131.342             120.518    -20.7731   -18.1522      NaN
  8578  99493.2              131.682             120.789    -21.1851   -18.55      NaN
  8585  99574.4              132.021             121.061    -21.6206   -18.9671      NaN
  8592  99655.6              132.361             121.334    -22.0717   -19.4073      NaN
  8599  99736.8              132.699             121.608    -22.5249   -19.8445      NaN
  8606  99818.0              133.036             121.884    -23.0029   -20.33      NaN
  8613  99899.2              133.375             122.162    -23.4725   -20.7826      NaN
  8620  99980.4              133.713             122.441    -23.9186   -21.22      NaN
  8627 100061.6              134.051             122.721    -24.298   -21.5902      NaN
  8634 100142.8              134.388             123.003    -24.6064   -21.8741      NaN
  8641 100224.0              134.726             123.287    -24.7941   -22.07      NaN
  8648 100305.2              135.063             123.572    -24.8584   -22.129      NaN
  8655 100386.4              135.402             123.858    -24.8423   -22.0977      NaN
  8662 100467.6              135.739             124.146    -24.7207   -21.9623      NaN
  8669 100548.8              136.077             124.434    -24.59   -21.8374      NaN
  8676 100630.0              136.416             124.724    -24.4803   -21.7129      NaN
  8683 100711.2              136.754             125.014    -24.4076   -21.6283      NaN
  8690 100792.4              137.095             125.307    -24.3708   -21.5886      NaN
  8697 100873.6              137.434             125.6    -24.3793   -21.5836      NaN
  8704 100954.8              137.774             125.893    -24.4187   -21.6274      NaN
  8711 101036.0              138.113             126.189    -24.4804   -21.6829      NaN
  8718 101117.2              138.452             126.485    -24.5482   -21.736      NaN
  8725 101198.4              138.791             126.783    -24.6312   -21.8198      NaN
  8732 101279.6              139.13             127.081    -24.7227   -21.9065      NaN
  8739 101360.8              139.468             127.382    -24.8493   -22.0325      NaN
  8746 101442.0              139.806             127.682    -24.9339   -22.1108      NaN
  8753 101523.2              140.144             127.983    -25.0485   -22.2164      NaN
  8760 101604.4              140.482             128.285    -25.1522   -22.3183      NaN
  8767 101685.6              140.819             128.588    -25.2604   -22.4167      NaN
  8774 101766.8              141.156             128.892    -25.3781   -22.5403      NaN
  8781 101848.0              141.495             129.197    -25.483   -22.6518      NaN
  8788 101929.2              141.832             129.503    -25.5838   -22.7334      NaN
  8795 102010.4              142.172             129.809    -25.6862   -22.8234      NaN
  8802 102091.6              142.51             130.116    -25.8034   -22.9465      NaN
  8809 102172.8              142.851             130.424    -25.8927   -23.0436      NaN
  8816 102254.0              143.19             130.733    -26.0042   -23.158      NaN
  8823 102335.2              143.529             131.042    -26.0893   -23.2262      NaN
  8830 102416.4              143.868             131.352    -26.2027   -23.3325      NaN
  8837 102497.6              144.205             131.663    -26.2943   -23.4324      NaN
  8844 102578.8              144.544             131.974    -26.3881   -23.5153      NaN
  8851 102660.0              144.882             132.287    -26.4936   -23.6231      NaN
  8858 102741.2              145.22             132.599    -26.5703   -23.7038      NaN
  8865 102822.4              145.558             132.913    -26.6773   -23.803      NaN
  8872 102903.6              145.896             133.228    -26.7465   -23.8677      NaN
  8879 102984.8              146.232             133.542    -26.8488   -23.9667      NaN
  8886 103066.0              146.568             133.857    -26.9224   -24.0549      NaN
  8893 103147.2              146.905             134.173    -27.0114   -24.1396      NaN
  8900 103228.4              147.242             134.488    -27.0886   -24.2042      NaN
  8907 103309.6              147.58             134.804    -27.1698   -24.2799      NaN
  8914 103390.8              147.919             135.121    -27.224   -24.3449      NaN
  8921 103472.0              148.257             135.439    -27.3153   -24.4362      NaN
  8928 103553.2              148.597             135.757    -27.3887   -24.5151      NaN
  8935 103634.4              148.938             136.076    -27.4586   -24.5852      NaN
  8942 103715.6              149.28             136.394    -27.537   -24.6552      NaN
  8949 103796.8              149.62             136.714    -27.6191   -24.7359      NaN
  8956 103878.0              149.96             137.034    -27.6855   -24.814      NaN
  8963 103959.2              150.299             137.354    -27.7726   -24.8969      NaN
  8970 104040.4              150.638             137.676    -27.8421   -24.963      NaN
  8977 104121.6              150.976             137.996    -27.923   -25.0355      NaN
  8984 104202.8              151.315             138.319    -28.0075   -25.1277      NaN
  8991 104284.0              151.653             138.642    -28.0661   -25.1767      NaN
  8998 104365.2              151.99             138.965    -28.1576   -25.2979      NaN
  9005 104446.4              152.326             139.288    -28.2198   -25.3497      NaN
  9012 104527.6              152.661             139.611    -28.3003   -25.4249      NaN
  9019 104608.8              152.995             139.935    -28.3582   -25.4833      NaN
  9026 104690.0              153.331             140.259    -28.4328   -25.5579      NaN
  9033 104771.2              153.667             140.583    -28.4892   -25.6244      NaN
  9040 104852.4              154.004             140.907    -28.5619   -25.7002      NaN
  9047 104933.6              154.344             141.231    -28.6096   -25.7446      NaN
  9054 105014.8              154.683             141.556    -28.6753   -25.8041      NaN
  9061 105096.0              155.022             141.882    -28.7347   -25.871      NaN
  9068 105177.2              155.362             142.208    -28.793   -25.9318      NaN
  9075 105258.4              155.702             142.533    -28.8677   -26.0135      NaN
  9082 105339.6              156.043             142.86    -28.9169   -26.0648      NaN
  9089 105420.8              156.383             143.186    -28.9869   -26.1266      NaN
  9096 105502.0              156.722             143.513    -29.0439   -26.1797      NaN
  9103 105583.2              157.063             143.84    -29.1123   -26.2585      NaN
  9110 105664.4              157.404             144.168    -29.1716   -26.3191      NaN
  9117 105745.6              157.744             144.495    -29.2521   -26.4028      NaN
  9124 105826.8              158.083             144.824    -29.3014   -26.4454      NaN
  9131 105908.0              158.421             145.153    -29.3864   -26.5443      NaN
  9138 105989.2              158.758             145.482    -29.4385   -26.5912      NaN
  9145 106070.4              159.094             145.812    -29.5064   -26.6654      NaN
  9152 106151.6              159.43             146.141    -29.5443   -26.7001      NaN
  9159 106232.8              159.767             146.471    -29.5977   -26.7523      NaN
  9166 106314.0              160.104             146.8    -29.6238   -26.7854      NaN
  9173 106395.2              160.441             147.13    -29.6629   -26.8273      NaN
  9180 106476.4              160.78             147.459    -29.6739   -26.8497      NaN
  9187 106557.6              161.119             147.789    -29.6929   -26.8608      NaN
  9194 106638.8              161.458             148.121    -29.6803   -26.8412      NaN
  9201 106720.0              161.797             148.451    -29.6525   -26.8223      NaN
  9208 106801.2              162.137             148.782    -29.6154   -26.7928      NaN
  9215 106882.4              162.477             149.114    -29.5303   -26.7102      NaN
  9222 106963.6              162.817             149.445    -29.4264   -26.6092      NaN
  9229 107044.8              163.157             149.776    -29.267   -26.463      NaN
  9236 107126.0              163.496             150.109    -29.0672   -26.2688      NaN
  9243 107207.2              163.835             150.44    -28.805   -26.0082      NaN
  9250 107288.4              164.173             150.772    -28.4753   -25.6796      NaN
  9257 107369.6              164.511             151.106    -28.0476   -25.2521      NaN
  9264 107450.8              164.852             151.439    -27.5303   -24.7401      NaN
  9271 107532.0              165.19             151.772    -26.9062   -24.1046      NaN
  9278 107613.2              165.528             152.105    -26.127   -23.3409      NaN
  9285 107694.4              165.864             152.439    -25.1968   -22.4095      NaN
  9292 107775.6              166.201             152.772    -24.0666   -21.2952      NaN
  9299 107856.8              166.536             153.106    -22.7035   -19.9426      NaN
  9306 107938.0              166.873             153.439    -21.0627   -18.2982      NaN
  9313 108019.2              167.21             153.773    -19.1042   -16.3349      NaN
  9320 108100.4              167.547             154.108    -16.7603   -14.0038      NaN
  9327 108181.6              167.885             154.442    -13.9698   -11.2194      NaN
  9334 108262.8              168.224             154.775    -10.6726    -7.918787      NaN
  9341 108344.0              168.563             155.11     -6.815861    -4.057975      NaN
  9348 108425.2              168.903             155.445     -2.363736     0.375458      NaN
  9355 108506.4              169.242             155.779      2.665854     5.389773      NaN
  9362 108587.6              169.581             156.114      8.283067    11.0061      NaN
  9369 108668.8              169.921             156.45     14.3201    17.0384      NaN
  9376 108750.0              170.26             156.785     20.5675    23.2747      NaN
  9383 108831.2              170.596             157.121     26.6552    29.3604      NaN
  9390 108912.4              170.934             157.457     32.1645    34.8691      NaN
  9397 108993.6              171.27             157.793     36.556    39.2498      NaN
  9404 109074.8              171.608             158.129     39.3274    42.0202      NaN
  9411 109156.0              171.946             158.464     40.0727    42.763      NaN
  9418 109237.2              172.286             158.8     38.6151    41.2955      NaN
  9425 109318.4              172.624             159.137     35.064    37.7374      NaN
  9432 109399.6              172.964             159.472     29.85    32.5161      NaN
  9439 109480.8              173.303             159.809     23.5917    26.2552      NaN
  9446 109562.0              173.644             160.145     16.8833    19.5502      NaN
  9453 109643.2              173.982             160.481     10.2542    12.9113      NaN
  9460 109724.4              174.319             160.817      4.071715     6.708476      NaN
  9467 109805.6              174.658             161.153     -1.449980     1.174898      NaN
  9474 109886.8              174.995             161.488     -6.252760    -3.629444      NaN
  9481 109968.0              175.334             161.824    -10.314    -7.681457      NaN
  9488 110049.2              175.671             162.16    -13.7111   -11.095      NaN
  9495 110130.4              176.01             162.496    -16.5099   -13.8982      NaN
  9502 110211.6              176.349             162.833    -18.8162   -16.2181      NaN
  9509 110292.8              176.689             163.169    -20.6776   -18.0932      NaN
  9516 110374.0              177.029             163.505    -22.2119   -19.6274      NaN
  9523 110455.2              177.367             163.842    -23.4483   -20.8793      NaN
  9530 110536.4              177.706             164.178    -24.4637   -21.8959      NaN
  9537 110617.6              178.043             164.516    -25.2864   -22.726      NaN
  9544 110698.8              178.381             164.852    -25.9702   -23.42      NaN
  9551 110780.0              178.719             165.189    -26.5334   -23.9813      NaN
  9558 110861.2              179.056             165.526    -27.0009   -24.4662      NaN
  9565 110942.4              179.395             165.863    -27.3919   -24.8645      NaN
  9572 111023.6              179.734             166.2    -27.7284   -25.2177      NaN
  9579 111104.8              180.074             166.537    -28.0162   -25.5069      NaN
  9586 111186.0              180.414             166.875    -28.2706   -25.7735      NaN
  9593 111267.2              180.754             167.212    -28.4969   -25.9996      NaN
  9600 111348.4              181.092             167.55    -28.7045   -26.2192      NaN
  9607 111429.6              181.432             167.888    -28.9018   -26.4132      NaN
  9614 111510.8              181.77             168.226    -29.0996   -26.6202      NaN
  9621 111592.0              182.107             168.564    -29.2956   -26.8219      NaN
  9628 111673.2              182.443             168.902    -29.5219   -27.0548      NaN
  9635 111754.4              182.779             169.241    -29.8044   -27.3545      NaN
  9642 111835.6              183.116             169.579    -30.2099   -27.7777      NaN
  9649 111916.8              183.454             169.917    -30.8698   -28.4159      NaN
  9656 111998.0              183.792             170.256    -32.0716   -29.6189      NaN
  9663 112079.2              184.131             170.594    -34.6007   -32.163      NaN
  9670 112160.4              184.471             170.932    -39.9566   -37.5431      NaN
  9677 112241.6              184.81             171.272    -49.3814   -46.9625      NaN
  9684 112322.8              185.149             171.61    -60.9097   -58.5087      NaN
  9691 112404.0              185.488             171.948    -74.6257   -72.2254      NaN
  9698 112485.2              185.825             172.287    -89.0118   -86.6185      NaN
  9705 112566.4              186.165             172.626    -91.8379   -89.469      NaN
  9712 112647.6              186.502             172.964    -54.0297   -51.6588      NaN
  9719 112728.8              186.841             173.305    -12.6093   -10.226      NaN
  9726 112810.0              187.178             173.646      7.113647     9.491082      NaN
  9733 112891.2              187.514             173.987     10.943    13.2977      NaN
  9740 112972.4              187.852             174.327      6.705293     9.057962      NaN
  9747 113053.6              188.19             174.668     -0.295354     2.041772      NaN
  9754 113134.8              188.528             175.008     -7.418890    -5.105919      NaN
  9761 113216.0              188.866             175.349    -13.6324   -11.3399 0.817378
  9768 113297.2              189.205             175.69    -18.8014   -16.5184 0.817041
  9775 113378.4              189.545             176.03    -23.3371   -21.0659 0.816705
  9782 113459.6              189.883             176.37    -29.0008   -26.7476 0.816366
  9789 113540.8              190.224             176.712    -41.5076   -39.2598 0.816026
  9796 113622.0              190.562             177.051    -68.8936   -66.6661 0.815686
  9803 113703.2              190.902             177.391   -105.724  -103.482 0.815344
  9810 113784.4              191.241             177.73   -141.773  -139.538 0.815002
  9817 113865.6              191.579             178.069   -168.128  -165.924 0.814659
  9824 113946.8              191.918             178.408   -187.184  -184.991 0.814315
  9831 114028.0              192.256             178.746   -209.812  -207.625 0.813970
  9838 114109.2              192.594             179.085   -222.834  -220.655 0.813624
  9845 114190.4              192.931             179.423   -192.322  -190.134 0.813276
  9852 114271.6              193.268             179.764   -146.955  -144.77 0.812925
  9859 114352.8              193.605             180.104   -115.642  -113.495 0.812572
  9866 114434.0              193.941             180.445    -93.6913   -91.5654 0.812218
  9873 114515.2              194.279             180.787    -78.053   -75.9214 0.811861
  9880 114596.4              194.618             181.129    -66.8351   -64.7124 0.811502
  9887 114677.6              194.956             181.471    -58.7555   -56.637 0.811143
  9894 114758.8              195.296             181.813    -52.9358   -50.852 0.810781
  9901 114840.0              195.635             182.155    -48.7497   -46.6741 0.810418
  9908 114921.2              195.975             182.498    -45.7236   -43.6568 0.810052
  9915 115002.4              196.315             182.84    -43.5549   -41.481 0.809686
  9922 115083.6              196.654             183.183    -42.0034   -39.9228 0.809317
  9929 115164.8              196.992             183.526    -40.9014   -38.8363 0.808946
  9936 115246.0              197.332             183.868    -40.1452   -38.1106 0.808574
  9943 115327.2              197.671             184.211    -39.611   -37.5817 0.808201
  9950 115408.4              198.009             184.555    -39.2577   -37.2227 0.807824
  9957 115489.6              198.347             184.897    -39.0194   -36.9831 0.807446
  9964 115570.8              198.683             185.24    -38.8668   -36.8738 0.807067
  9971 115652.0              199.019             185.584    -38.7652   -36.7779 0.806685
  9978 115733.2              199.357             185.927    -38.7231   -36.7571 0.806302
  9985 115814.4              199.694             186.27    -38.7062   -36.7256 0.805916
  9992 115895.6              200.033             186.613    -38.7236   -36.7786 0.805529
  9999 115976.8              200.372             186.956    -38.7547   -36.8208 0.805141
 10006 116058.0              200.711             187.299    -38.8073   -36.9203 0.804750
 10013 116139.2              201.05             187.642    -38.8694   -36.9724 0.804357
 10020 116220.4              201.39             187.985    -38.9355   -36.9994 0.803961
 10027 116301.6              201.728             188.329    -39.0049   -37.0449 0.803564
 10034 116382.8              202.067             188.673    -39.088   -37.0997 0.803163
 10041 116464.0              202.406             189.017    -39.1739   -37.231 0.802761
 10048 116545.2              202.744             189.36    -39.2647   -37.3931 0.802357
 10055 116626.4              203.082             189.704    -39.3416   -37.444 0.801951
 10062 116707.6              203.42             190.047    -39.4247   -37.5042 0.801543
 10069 116788.8              203.758             190.391    -39.4978   -37.5743 0.801131
 10076 116870.0              204.096             190.734    -39.5947   -37.648 0.800718
 10083 116951.2              204.433             191.078    -39.6823   -37.776 0.800302
 10090 117032.4              204.771             191.422    -39.7658   -37.9105 0.799884
 10097 117113.6              205.109             191.766    -39.8515   -38.0348 0.799464
 10104 117194.8              205.449             192.11    -39.9507   -38.2069 0.799041
 10111 117276.0              205.787             192.454    -40.0345   -38.3025 0.798615
 10118 117357.2              206.125             192.797    -40.1392   -38.3859 0.798188
 10125 117438.4              206.463             193.141    -40.2245   -38.4619 0.797757
 10132 117519.6              206.801             193.485    -40.3101   -38.5566 0.797323
 10139 117600.8              207.138             193.828    -40.3814   -38.6474 0.796889
 10146 117682.0              207.476             194.173    -40.4937   -38.7744 0.796449
 10153 117763.2              207.813             194.516    -40.5877   -38.8285 0.796008
 10160 117844.4              208.151             194.861    -40.6911   -38.8929 0.795563
 10167 117925.6              208.49             195.205    -40.7542   -38.9513 0.795116
 10174 118006.8              208.829             195.548    -40.8508   -39.0584 0.794667
 10181 118088.0              209.167             195.892    -40.956   -39.1828 0.794215
 10188 118169.2              209.506             196.236    -41.0684   -39.3479 0.793759
 10195 118250.4              209.846             196.579    -41.1703   -39.5088 0.793302
 10202 118331.6              210.187             196.924    -41.2536   -39.5989 0.792840
 10209 118412.8              210.526             197.268    -41.3521   -39.7145 0.792375
 10216 118494.0              210.866             197.612    -41.4564   -39.8763 0.791907
 10223 118575.2              211.205             197.957    -41.5691   -40.0344 0.791435
 10230 118656.4              211.544             198.302    -41.6585   -40.0725 0.790960
 10237 118737.6              211.883             198.646    -41.7702   -40.086 0.790482
 10244 118818.8              212.222             198.991    -41.8587   -40.1403 0.790001
 10251 118900.0              212.559             199.335    -41.9645   -40.3038 0.789516
 10258 118981.2              212.897             199.679    -42.0619   -40.4058 0.789028
 10265 119062.4              213.234             200.024    -42.1946   -40.5227 0.788537
 10272 119143.6              213.572             200.369    -42.3141   -40.6496 0.788041
 10279 119224.8              213.91             200.713    -42.4455   -40.738 0.787543
 10286 119306.0              214.248             201.058    -42.5551   -40.8799 0.787040
 10293 119387.2              214.584             201.403    -42.6739   -41.019 0.786533
 10300 119468.4              214.922             201.748    -42.7827   -41.1172 0.786022
 10307 119549.6              215.259             202.093    -42.8821   -41.1977 0.785509
 10314 119630.8              215.597             202.437    -42.9951   -41.2588 0.784991
 10321 119712.0              215.935             202.782    -43.0906   -41.4573 0.784470
 10328 119793.2              216.274             203.126    -43.1984   -41.5635 0.783945
 10335 119874.4              216.613             203.471    -43.3051   -41.7291 0.783416
 10342 119955.6              216.952             203.816    -43.4369   -41.8205 0.782880
 10349 120036.8              217.291             204.16    -43.5815   -42.016 0.782343
 10356 120118.0              217.629             204.505    -43.6662   -42.1316 0.781800
 10363 120199.2              217.967             204.851    -43.7655   -42.3087 0.781253
 10370 120280.4              218.307             205.195    -43.8933   -42.4742 0.780702
 10377 120361.6              218.646             205.54    -44.0258   -42.6388 0.780147
 10384 120442.8              218.983             205.884    -44.1643   -42.884 0.779587
 10391 120524.0              219.32             206.229    -44.2793   -43.0308 0.779023
 10398 120605.2              219.656             206.574    -44.3869   -43.0853 0.778452
 10405 120686.4              219.995             206.919    -44.5276   -43.1823 0.777878
 10412 120767.6              220.333             207.264    -44.6301   -43.2591 0.777299
 10419 120848.8              220.671             207.609    -44.7784   -43.3831 0.776714
 10426 120930.0              221.01             207.953    -44.9174   -43.4611 0.776127
 10433 121011.2              221.349             208.298    -45.0587   -43.6209 0.775532
 10440 121092.4              221.689             208.643    -45.1997   -43.7176 0.774932
 10447 121173.6              222.028             208.988    -45.3365   -43.8741 0.774327
 10454 121254.8              222.367             209.332    -45.5024   -44.0028 0.773717
 10461 121336.0              222.707             209.677    -45.6297   -44.0677 0.773102
 10468 121417.2              223.046             210.022    -45.7602   -44.1762 0.772481
 10475 121498.4              223.385             210.367    -45.8942   -44.353 0.771853
 10482 121579.6              223.722             210.712    -46.0454   -44.5545 0.771220
 10489 121660.8              224.059             211.057    -46.2011   -44.7184 0.770582
 10496 121742.0              224.396             211.402    -46.3504   -44.9343 0.769936
 10503 121823.2              224.733             211.747    -46.4897   -45.0829 0.769285
 10510 121904.4              225.069             212.092    -46.6258   -45.3016 0.768627
 10517 121985.6              225.406             212.436    -46.7888   -45.4897 0.767965
 10524 122066.8              225.745             212.78    -46.9526   -45.604 0.767297
 10531 122148.0              226.084             213.125    -47.1331   -45.6422 0.766620
 10538 122229.2              226.424             213.47    -47.3048   -45.7914 0.765937
 10545 122310.4              226.763             213.815    -47.4828   -45.9343 0.765248
 10552 122391.6              227.102             214.159    -47.6281   -46.0835 0.764553
 10559 122472.8              227.442             214.505    -47.7976   -46.4144 0.763846
 10566 122554.0              227.78             214.85    -47.9658   -46.6939 0.763136
 10573 122635.2              228.118             215.195    -48.1109   -46.8749 0.762417
 10580 122716.4              228.455             215.539    -48.2953   -47.0841 0.761693
 10587 122797.6              228.792             215.883    -48.4886   -47.3529 0.760960
 10594 122878.8              229.129             216.228    -48.6923   -47.5047 0.760218
 10601 122960.0              229.467             216.573    -48.8638   -47.67 0.759469
 10608 123041.2              229.806             216.918    -49.0464   -47.858 0.758713
 10615 123122.4              230.143             217.262    -49.205   -47.913 0.757948
 10622 123203.6              230.483             217.607    -49.4057   -48.1282 0.757174
 10629 123284.8              230.822             217.951    -49.5753   -48.2926 0.756393
 10636 123366.0              231.163             218.295    -49.7578   -48.4736 0.755604
 10643 123447.2              231.501             218.64    -49.9399   -48.7121 0.754804
 10650 123528.4              231.839             218.985    -50.0772   -48.876 0.753995
 10657 123609.6              232.178             219.329    -50.2704   -49.0768 0.753177
 10664 123690.8              232.516             219.675    -50.4796   -49.3739 0.752348
 10671 123772.0              232.854             220.019    -50.6711   -49.6024 0.751512
 10678 123853.2              233.192             220.364    -50.8804   -49.7621 0.750663
 10685 123934.4              233.531             220.709    -51.11   -50.0015 0.749805
 10692 124015.6              233.87             221.054    -51.3364   -50.2514 0.748938
 10699 124096.8              234.209             221.398    -51.535   -50.4431 0.748060
 10706 124178.0              234.548             221.743    -51.7681   -50.6537 0.747171
 10713 124259.2              234.886             222.088    -51.9765   -51.0427 0.746271
 10720 124340.4              235.225             222.433    -52.2016   -51.227 0.745359
 10727 124421.6              235.564             222.778    -52.425   -51.4636 0.744434
 10734 124502.8              235.902             223.123    -52.6755   -51.7256 0.743499
 10741 124584.0              236.24             223.468    -52.9149   -52.0173 0.742551
 10748 124665.2              236.579             223.813    -53.1435   -52.2273 0.741593
 10755 124746.4              236.917             224.158    -53.4324   -52.5238 0.740618
 10762 124827.6              237.256             224.503    -53.6987   -52.7831 0.739634
 10769 124908.8              237.593             224.848    -53.9707   -53.0396 0.738636
 10776 124990.0              237.931             225.194    -54.2378   -53.3715 0.737622
 10783 125071.2              238.27             225.539    -54.4886   -53.67 0.736596
 10790 125152.4              238.608             225.884    -54.7238   -53.8562 0.735556
 10797 125233.6              238.947             226.229    -54.9957   -54.0663 0.734501
 10804 125314.8              239.285             226.574    -55.2889   -54.3199 0.733432
 10811 125396.0              239.622             226.919    -55.597   -54.7412 0.732347
 10818 125477.2              239.959             227.263    -55.9063   -55.1011 0.731251
 10825 125558.4              240.296             227.609    -56.1918   -55.3845 0.730133
 10832 125639.6              240.632             227.953    -56.4374   -55.6662 0.729003
 10839 125720.8              240.968             228.299    -56.7344   -55.8674 0.727853
 10846 125802.0              241.306             228.643    -57.028   -56.0926 0.726691
 10853 125883.2              241.645             228.987    -57.3267   -56.2929 0.725510
 10860 125964.4              241.984             229.331    -57.6456   -56.6135 0.724310
 10867 126045.6              242.324             229.676    -57.9575   -56.9461 0.723091
 10874 126126.8              242.663             230.02    -58.3102   -57.2994 0.721855
 10881 126208.0              243.002             230.366    -58.6449   -57.5786 0.720597
 10888 126289.2              243.341             230.71    -58.9997   -57.9751 0.719323
 10895 126370.4              243.679             231.054    -59.3796   -58.4803 0.718027
 10902 126451.6              244.016             231.399    -59.7924   -58.911 0.716706
 10909 126532.8              244.353             231.743    -60.1587   -59.2303 0.715371
 10916 126614.0              244.691             232.087    -60.5583   -59.6327 0.714010
 10923 126695.2              245.029             232.432    -60.9005   -59.9599 0.712625
 10930 126776.4              245.367             232.776    -61.2947   -60.3993 0.711220
 10937 126857.6              245.707             233.12    -61.6925   -60.7557 0.709791
 10944 126938.8              246.047             233.464    -62.061   -61.1478 0.708335
 10951 127020.0              246.388             233.808    -62.4751   -61.6058 0.706856
 10958 127101.2              246.726             234.152    -62.9103   -62.1589 0.705352
 10965 127182.4              247.064             234.496    -63.3623   -62.6142 0.703820
 10972 127263.6              247.401             234.841    -63.7923   -63.0155 0.702257
 10979 127344.8              247.736             235.185    -64.2732   -63.5317 0.700667
 10986 127426.0              248.071             235.53    -64.7545   -64.0577 0.699048
 10993 127507.2              248.408             235.874    -65.2409   -64.5895 0.697401
 11000 127588.4              248.746             236.217    -65.6975   -65.0064 0.695725
 11007 127669.6              249.085             236.562    -66.1988   -65.4763 0.694012
 11014 127750.8              249.425             236.906    -66.6548   -65.8581 0.692271
 11021 127832.0              249.764             237.249    -67.1607   -66.2512 0.690496
 11028 127913.2              250.104             237.592    -67.6949   -66.7848 0.688691
 11035 127994.4              250.445             237.936    -68.2498   -67.2608 0.686845
 11042 128075.6              250.783             238.28    -68.8015   -67.992 0.684962
 11049 128156.8              251.12             238.624    -69.4018   -68.5892 0.683039
 11056 128238.0              251.455             238.968    -70.0022   -69.177 0.681082
 11063 128319.2              251.789             239.312    -70.6112   -69.8922 0.679077
 11070 128400.4              252.125             239.654    -71.1967   -70.6026 0.677043
 11077 128481.6              252.462             239.998    -71.8333   -71.1572 0.674961
 11084 128562.8              252.801             240.34    -72.4654   -71.8317 0.672840
 11091 128644.0              253.141             240.682    -73.0968   -72.5948 0.670672
 11098 128725.2              253.482             241.025    -73.7501   -73.3835 0.668454
 11105 128806.4              253.823             241.368    -74.4301   -74.1877 0.666188
 11112 128887.6              254.165             241.711    -75.1329   -74.9023 0.663869
 11119 128968.8              254.505             242.054    -75.8549   -75.5668 0.661497
 11126 129050.0              254.842             242.397    -76.6142   -76.2025 0.659074
 11133 129131.2              255.177             242.739    -77.3883   -76.8277 0.656596
 11140 129212.4              255.513             243.083    -78.2203   -77.6664 0.654053
 11147 129293.6              255.851             243.425    -79.0313   -78.449 0.651462
 11154 129374.8              256.188             243.768    -79.8433   -79.2146 0.648802
 11161 129456.0              256.528             244.11    -80.6998   -80.0777 0.646079
 11168 129537.2              256.868             244.452    -81.6479   -81.019 0.643295
 11175 129618.4              257.208             244.795    -82.5613   -82.0798 0.640436
 11182 129699.6              257.548             245.138    -83.5343   -83.2262 0.637503
 11189 129780.8              257.89             245.48    -84.4871   -84.3066 0.634502
 11196 129862.0              258.229             245.823    -85.5025   -85.2435 0.631419
 11203 129943.2              258.566             246.166    -86.5516   -86.2762 0.628253
 11210 130024.4              258.902             246.509    -87.6291   -87.2161 0.625013
 11217 130105.6              259.235             246.851    -88.7676   -88.3594 0.621684
 11224 130186.8              259.571             247.194    -89.9454   -89.7358 0.618265
 11231 130268.0              259.909             247.535    -91.1404   -90.9703 0.614768
 11238 130349.2              260.247             247.878    -92.3436   -92.1102 0.611157
 11245 130430.4              260.586             248.221    -93.5903   -93.4581 0.607448
 11252 130511.6              260.927             248.563    -94.8822   -94.6505 0.603642
 11259 130592.8              261.27             248.904    -96.2526   -95.9886 0.599735
 11266 130674.0              261.611             249.247    -97.6359   -97.4902 0.595696
 11273 130755.2              261.952             249.589    -99.1016   -98.8668 0.591555
 11280 130836.4              262.292             249.933   -100.597  -100.366 0.587273
 11287 130917.6              262.631             250.275   -102.172  -101.999 0.582876
 11294 130998.8              262.971             250.618   -103.769  -103.684 0.578346
 11301 131080.0              263.309             250.961   -105.449  -105.509 0.573665
 11308 131161.2              263.645             251.304   -107.184  -107.225 0.568846
 11315 131242.4              263.981             251.648   -108.98  -108.894 0.563870
 11322 131323.6              264.315             251.991   -110.873  -110.641 0.558743
 11329 131404.8              264.653             252.333   -112.799  -112.619 0.553457
 11336 131486.0              264.99             252.677   -114.805  -114.642 0.547984
 11343 131567.2              265.33             253.019   -116.838  -116.696 0.542358
 11350 131648.4              265.67             253.362   -118.996  -118.796 0.536529
 11357 131729.6              266.011             253.705   -121.17  -120.975 0.530502
 11364 131810.8              266.351             254.048   -123.447  -123.279 0.524269
 11371 131892.0              266.687             254.391   -125.812  -125.527 0.517817
 11378 131973.2              267.021             254.734   -128.261  -128.022 0.511144
 11385 132054.4              267.354             255.075   -130.81  -130.802 0.504257
 11392 132135.6              267.687             255.419   -133.433  -133.435 0.497091
 11399 132216.8              268.025             255.76   -136.169  -136.132 0.489709
 11406 132298.0              268.362             256.101   -138.975  -139.028 0.482049
 11413 132379.2              268.7             256.443   -141.937  -142.032 0.474095
 11420 132460.4              269.042             256.785   -145.002  -145.025 0.465814
 11427 132541.6              269.383             257.125   -148.208  -148.358 0.457266
 11434 132622.8              269.727             257.468   -151.486  -151.728 0.448323
 11441 132704.0              270.066             257.809   -154.955  -155.325 0.439045
 11448 132785.2              270.405             258.151   -158.595  -158.817 0.429379
 11455 132866.4              270.737             258.493   -162.431  -162.537 0.419313
 11462 132947.6              271.071             258.834   -166.389  -166.491 0.408841
 11469 133028.8              271.403             259.174   -170.542  -170.755 0.397943
 11476 133110.0              271.74             259.515   -174.863  -175.214 0.386545
 11483 133191.2              272.078             259.855   -179.365  -179.705 0.374662
 11490 133272.4              272.418             260.196   -184.013  -184.376 0.362202
 11497 133353.6              272.758             260.535   -188.873  -189.298 0.349216
 11504 133434.8              273.102             260.875   -193.89  -194.395 0.335554
 11511 133516.0              273.443             261.215   -199.105  -199.877 0.321245
 11518 133597.2              273.787             261.556   -204.546  -205.427 0.306183
 11525 133678.4              274.127             261.896   -210.231  -211.165 0.290339
 11532 133759.6              274.465             262.237   -216.111  -217.066 0.273625
 11539 133840.8              274.799             262.577   -222.256  -223.115 0.256019
 11546 133922.0              275.131             262.916   -228.604  -229.503 0.237472
 11553 134003.2              275.465             263.256   -235.171  -236.181 0.217764
 11560 134084.4              275.798             263.595   -241.986  -242.647 0.196975
 11567 134165.6              276.137             263.934   -249.094  -249.88 0.174875
 11574 134246.8              276.476             264.273   -256.567  -257.592 0.151323
 11581 134328.0              276.82             264.611   -264.347  -265.371 0.126213
 11588 134409.2              277.161             264.95   -272.305  -273.162 0.099304
 11595 134490.4              277.505             265.289   -280.379  -281.191 0.070432
 11602 134571.6              277.846             265.628   -288.322  -289.085 0.039405
 11609 134652.8              278.187             265.967   -295.866  -296.758 0.005841
 11616 134734.0              278.523             266.306   -302.189  -302.963      NaN
 11623 134815.2              278.858             266.645   -308.577  -309.457      NaN
 11630 134896.4              279.194             266.985   -314.163  -315.081      NaN
 11637 134977.6              279.531             267.323   -319.281  -320.111      NaN
 11644 135058.8              279.871             267.662   -323.825  -324.633      NaN
 11651 135140.0              280.21             268.001   -328.274  -328.953      NaN
 11658 135221.2              280.552             268.34   -333.812  -334.445      NaN
 11665 135302.4              280.893             268.679   -337.832  -338.424      NaN
 11672 135383.6              281.236             269.018   -339.724  -340.294      NaN
 11679 135464.8              281.577             269.358   -345.597  -346.169      NaN
 11686 135546.0              281.921             269.698   -346.277  -347.107      NaN
 11693 135627.2              282.261             270.038   -331.629  -332.454      NaN
 11700 135708.4              282.603             270.38   -321.832  -322.439      NaN
 11707 135789.6              282.942             270.721   -315.614  -316.126      NaN
 11714 135870.8              283.275             271.063   -311.239  -311.931      NaN
 11721 135952.0              283.605             271.405   -308.246  -308.965      NaN
 11728 136033.2              283.933             271.747   -306.391  -307.125      NaN
 11735 136114.4              284.263             272.088   -301.077  -301.91      NaN
 11742 136195.6              284.596             272.428   -291.398  -292.516      NaN
 11749 136276.8              284.935             272.768   -283.684  -284.796      NaN
 11756 136358.0              285.274             273.108   -268.933  -269.955      NaN
 11763 136439.2              285.618             273.449   -236.495  -237.464      NaN
 11770 136520.4              285.96             273.79   -201.386  -202.206      NaN
 11777 136601.6              286.303             274.131   -175.012  -175.74      NaN
 11784 136682.8              286.645             274.474   -154.606  -155.25      NaN
 11791 136764.0              286.987             274.817   -138.646  -139.305      NaN
 11798 136845.2              287.322             275.161   -126.27  -126.841      NaN
 11805 136926.4              287.656             275.503   -116.668  -117.361      NaN
 11812 137007.6              287.989             275.846   -109.248  -110.303      NaN
 11819 137088.8              288.328             276.189   -103.486  -104.581      NaN
 11826 137170.0              288.666             276.531    -99.0157  -100.024      NaN
 11833 137251.2              289.008             276.874    -95.5325   -96.5062      NaN
 11840 137332.4              289.348             277.217    -92.8501   -93.7541      NaN
 11847 137413.6              289.692             277.56    -90.7614   -91.5366      NaN
 11854 137494.8              290.032             277.903    -89.1528   -90.1181      NaN
 11861 137576.0              290.375             278.246    -87.9076   -89.1857      NaN
 11868 137657.2              290.716             278.59    -86.9623   -88.0067      NaN
 11875 137738.4              291.054             278.933    -86.2312   -87.2428      NaN
 11882 137819.6              291.394             279.277    -85.6834   -86.8054      NaN
 11889 137900.8              291.732             279.621    -85.2787   -86.2992      NaN
 11896 137982.0              292.072             279.966    -84.9612   -85.9694      NaN
 11903 138063.2              292.408             280.31    -84.7322   -85.7627      NaN
 11910 138144.4              292.749             280.654    -84.548   -85.6426      NaN
 11917 138225.6              293.089             280.999    -84.4176   -85.4761      NaN
 11924 138306.8              293.428             281.343    -84.3206   -85.455      NaN
 11931 138388.0              293.767             281.688    -84.2542   -85.4203      NaN
 11938 138469.2              294.106             282.033    -84.2069   -85.2585      NaN
 11945 138550.4              294.44             282.379    -84.1874   -85.37      NaN
 11952 138631.6              294.772             282.723    -84.1859   -85.6478      NaN
 11959 138712.8              295.107             283.068    -84.1797   -85.6374      NaN
 11966 138794.0              295.442             283.412    -84.1676   -85.6379      NaN
 11973 138875.2              295.781             283.757    -84.1386   -85.5002      NaN
 11980 138956.4              296.119             284.1    -84.1195   -85.5567      NaN
 11987 139037.6              296.461             284.444    -84.0966   -85.4117      NaN
 11994 139118.8              296.8             284.788    -84.0809   -85.5139      NaN
 12001 139200.0              297.136             285.132    -84.0556   -85.407      NaN
 12008 139281.2              297.467             285.475    -84.0494   -85.2406      NaN
 12015 139362.4              297.798             285.818    -84.0273   -85.3569      NaN
 12022 139443.6              298.129             286.161    -84.0055   -85.3579      NaN
 12029 139524.8              298.465             286.502    -83.9577   -85.3232      NaN
 12036 139606.0              298.803             286.843    -83.9059   -85.2766      NaN
 12043 139687.2              299.142             287.185    -83.829   -85.1605      NaN
 12050 139768.4              299.286             287.524    -83.7599   -85.1872      NaN
 12057 139849.6              299.284             287.856    -83.6364   -85.1414      NaN
 12064 139930.8              299.271             288.178    -83.4311   -84.9073      NaN
 12071 140012.0              299.254             288.49    -83.0447   -84.4553      NaN
 12078 140093.2              299.24             288.792    -82.4365   -83.7972      NaN
 12085 140174.4              299.227             289.084    -81.5904   -82.8773      NaN
 12092 140255.6              299.22             289.367    -80.5011   -81.7069      NaN
 12099 140336.8              299.211             289.641    -79.2146   -80.7651      NaN
 12100 140348.4              299.21             289.679    -79.0115   -80.5735      NaN