File: z_unorganized_archive/archive_jack/Data/Second_Blank_Complete.csv
Second Blank for NH3-H2O Specific Heat - Large HF,,,,
Creation Date : 7/8/2022 3:02:26 PM,,,,
User : admin,,,,
,,,,
HeatFlow :,,,,
 Initial Mass : 0 mg,,,,
 Molar Mass : N/A,,,,
,,,,
Index,Time(s),Furnace Temperature(K),Sample Temperature(K),HeatFlow(mW)
1,0,299.096,299.098,-1.023605
13,139.2,299.083,299.098,-0.717723
25,278.4,299.071,299.1,-0.57044
37,417.6,299.059,299.098,-0.488827
49,556.8,299.042,299.097,-0.440305
61,696,299.016,299.095,-0.411158
73,835.2,298.977,299.091,-0.390413
85,974.4,298.919,299.085,-0.372926
97,1113.6,298.835,299.074,-0.362642
109,1252.8,298.72,299.06,-0.353388
121,1392,298.567,299.037,-0.345851
133,1531.2,298.374,299.006,-0.342775
145,1670.4,298.132,298.966,-0.338501
157,1809.6,297.824,298.912,-0.33166
169,1948.8,297.435,298.842,-0.333569
181,2088,296.951,298.751,-0.349206
193,2227.2,296.364,298.635,-0.364512
205,2366.4,295.677,298.489,-0.371255
217,2505.6,294.892,298.31,-0.366515
229,2644.8,294.027,298.093,-0.342908
241,2784,293.0987,297.837,-0.316214
253,2923.2,292.124,297.542,-0.282821
265,3062.4,291.116,297.207,-0.24375
277,3201.6,290.081,296.832,-0.19985
289,3340.8,289.023,296.418,-0.141483
301,3480,287.95,295.968,-0.084275
313,3619.2,286.868,295.482,-0.019616
325,3758.4,285.781,294.962,0.055265
337,3897.6,284.695,294.412,0.142633
349,4036.8,283.612,293.831,0.218215
361,4176,282.535,293.225,0.297863
373,4315.2,281.465,292.597,0.347592
385,4454.4,280.404,291.948,0.35025
397,4593.6,279.354,291.273,0.380748
409,4732.8,278.318,290.575,0.465094
421,4872,277.296,289.859,0.554255
433,5011.2,276.286,289.125,0.630059
445,5150.4,275.289,288.377,0.694906
457,5289.6,274.307,287.615,0.748078
469,5428.8,273.336,286.842,0.790936
481,5568,272.381,286.058,0.83632
493,5707.2,271.437,285.268,0.876056
505,5846.4,270.502,284.468,0.916579
517,5985.6,269.576,283.663,0.95266
529,6124.8,268.66,282.853,0.996676
541,6264,267.758,282.038,1.022102
553,6403.2,266.866,281.219,1.052664
565,6542.4,265.988,280.398,1.076822
577,6681.6,265.119,279.575,1.134327
589,6820.8,264.257,278.751,1.221599
601,6960,263.403,277.927,1.351194
613,7099.2,262.559,277.101,1.361225
625,7238.4,261.723,276.278,1.384656
637,7377.6,260.894,275.454,1.413082
649,7516.8,260.069,274.632,1.491293
661,7656,259.25,273.81,1.579923
673,7795.2,258.437,272.992,1.744904
685,7934.4,257.631,272.174,1.710569
697,8073.6,256.831,271.358,1.754612
709,8212.8,256.036,270.544,1.676979
721,8352,255.247,269.734,1.649227
733,8491.2,254.464,268.926,1.775817
745,8630.4,253.688,268.121,1.700461
757,8769.6,252.917,267.317,1.750667
769,8908.8,252.152,266.518,1.78156
781,9048,251.392,265.723,1.832879
793,9187.2,250.638,264.93,1.909163
805,9326.4,249.887,264.141,1.907988
817,9465.6,249.139,263.355,1.774635
829,9604.8,248.395,262.573,1.733324
841,9744,247.656,261.794,1.748297
853,9883.2,246.922,261.019,1.672538
865,10022.4,246.192,260.246,1.636559
877,10161.6,245.467,259.478,1.794364
889,10300.8,244.748,258.712,1.990798
901,10440,244.031,257.951,2.042317
913,10579.2,243.3174,257.194,1.920193
925,10718.4,242.61,256.44,2.236629
937,10857.6,241.906,255.69,2.352999
949,10996.8,241.204,254.944,2.299968
961,11136,240.506,254.2,2.112171
973,11275.2,239.814,253.4613,2.154781
985,11414.4,239.1258,252.725,2.144862
997,11553.6,238.44,251.993,2.125439
1009,11692.8,237.758,251.265,2.133179
1021,11832,237.083,250.541,2.17659
1033,11971.2,236.41,249.82,2.334891
1045,12110.4,235.739,249.103,2.479111
1057,12249.6,235.072,248.389,2.639293
1069,12388.8,234.41,247.679,2.422288
1081,12528,233.754,246.973,2.464878
1093,12667.2,233.1,246.271,2.786831
1105,12806.4,232.451,245.572,2.452635
1117,12945.6,231.807,244.877,2.240588
1129,13084.8,231.169,244.185,2.041136
1141,13224,230.534,243.498,2.06945
1153,13363.2,229.902,242.814,2.154378
1165,13502.4,229.275,242.134,1.966121
1177,13641.6,228.653,241.458,2.253884
1189,13780.8,228.035,240.785,2.459392
1201,13920,227.421,240.117,2.42265
1213,14059.2,226.811,239.453,2.352609
1225,14198.4,226.205,238.792,2.496078
1237,14337.6,225.602,238.135,2.320839
1249,14476.8,225.003,237.482,2.233916
1261,14616,224.408,236.833,1.929634
1273,14755.2,223.817,236.187,1.951443
1285,14894.4,223.226,235.545,1.888332
1297,15033.6,222.637,234.906,1.778948
1309,15172.8,222.049,234.271,1.984403
1321,15312,221.465,233.64,2.136597
1333,15451.2,220.883,233.012,2.051102
1345,15590.4,220.302,232.386,2.228564
1357,15729.6,219.724,231.765,2.378821
1369,15868.8,219.15,231.146,2.13321
1381,16008,218.581,230.53,1.934262
1393,16147.2,218.016,229.918,2.031088
1405,16286.4,217.456,229.309,2.004199
1417,16425.6,216.899,228.702,2.22931
1429,16564.8,216.349,228.1,2.574124
1441,16704,215.798,227.502,2.858658
1453,16843.2,215.252,226.906,2.397234
1465,16982.4,214.708,226.313,2.096369
1477,17121.6,214.166,225.723,1.726598
1489,17260.8,213.624,225.138,1.231149
1501,17400,213.0852,224.555,0.859671
1513,17539.2,212.55,223.975,0.999307
1525,17678.4,212.019,223.398,1.521646
1537,17817.6,211.49,222.824,1.543713
1549,17956.8,210.966,222.252,1.281719
1561,18096,210.446,221.685,1.477819
1573,18235.2,209.93,221.12,1.667836
1585,18374.4,209.415,220.559,1.798152
1597,18513.6,208.901,220,1.896144
1609,18652.8,208.388,219.444,2.000036
1621,18792,207.878,218.891,1.880033
1633,18931.2,207.367,218.342,1.804015
1645,19070.4,206.857,217.794,2.02447
1657,19209.6,206.351,217.249,2.355664
1669,19348.8,205.848,216.707,1.96117
1681,19488,205.349,216.167,1.465392
1693,19627.2,204.854,215.631,1.273797
1705,19766.4,204.363,215.098,1.777258
1717,19905.6,203.876,214.568,1.855995
1729,20044.8,203.39,214.039,1.599664
1741,20184,202.904,213.513,1.828457
1753,20323.2,202.42,212.99,1.904005
1765,20462.4,201.94,212.468,1.626925
1777,20601.6,201.46,211.95,1.663546
1789,20740.8,200.982,211.434,1.83505
1801,20880,200.508,210.922,2.055495
1813,21019.2,200.038,210.411,2.359318
1825,21158.4,199.571,209.902,2.608526
1837,21297.6,199.105,209.397,2.373468
1849,21436.8,198.643,208.894,2.029491
1861,21576,198.185,208.394,2.074555
1873,21715.2,197.728,207.896,2.078663
1885,21854.4,197.275,207.401,1.939152
1897,21993.6,196.823,206.909,1.945494
1909,22132.8,196.374,206.419,2.238244
1921,22272,195.927,205.932,2.174094
1933,22411.2,195.482,205.446,2.199916
1945,22550.4,195.038,204.964,2.049937
1957,22689.6,194.596,204.484,1.771186
1969,22828.8,194.157,204.006,1.719238
1981,22968,193.719,203.53,1.521215
1993,23107.2,193.284,203.057,1.549781
2005,23246.4,192.851,202.587,1.488793
2017,23385.6,192.42,202.119,1.318781
2029,23524.8,191.991,201.652,1.410757
2041,23664,191.564,201.188,1.462571
2053,23803.2,191.14,200.726,1.483673
2065,23942.4,190.721,200.267,1.526914
2077,24081.6,190.308,199.811,1.482603
2089,24220.8,189.897,199.357,1.63976
2101,24360,189.489,198.905,1.550707
2113,24499.2,189.082,198.456,0.978873
2125,24638.4,188.678,198.01,1.436954
2137,24777.6,188.276,197.565,1.499615
2149,24916.8,187.875,197.123,1.863152
2161,25056,187.472,196.684,1.688229
2173,25195.2,187.074,196.246,1.0543
2185,25334.4,186.677,195.812,1.187632
2197,25473.6,186.279,195.379,1.081898
2209,25612.8,185.882,194.948,1.436625
2221,25752,185.486,194.52,1.649987
2233,25891.2,185.092,194.093,1.903049
2245,26030.4,184.7,193.668,1.785372
2257,26169.6,184.308,193.244,1.602046
2269,26308.8,183.919,192.824,1.625413
2281,26448,183.535,192.406,1.998406
2293,26587.2,183.157,191.989,1.78424
2305,26726.4,182.779,191.573,1.446758
2317,26865.6,182.402,191.161,1.559756
2329,27004.8,182.026,190.749,1.491261
2341,27144,181.653,190.342,1.240992
2353,27283.2,181.28,189.936,0.998314
2365,27422.4,180.91,189.531,1.157975
2377,27561.6,180.542,189.128,0.638826
2389,27700.8,180.179,188.727,0.223798
2401,27840,179.818,188.329,0.658675
2413,27979.2,179.461,187.933,0.849695
2425,28118.4,179.104,187.537,1.007191
2437,28257.6,178.746,187.147,1.148688
2449,28396.8,178.3898,186.756,1.197861
2461,28536,178.035,186.368,0.507735
2473,28675.2,177.682,185.982,0.534645
2485,28814.4,177.33,185.597,0.478212
2497,28953.6,176.981,185.214,0.162316
2509,29092.8,176.636,184.833,0.200683
2521,29232,176.293,184.454,0.095529
2533,29371.2,175.953,184.077,0.274478
2545,29510.4,175.612,183.703,0.483785
2557,29649.6,175.274,183.33,0.50658
2569,29788.8,174.941,182.959,0.371506
2581,29928,174.611,182.59,0.716284
2593,30067.2,174.282,182.224,0.330468
2605,30206.4,173.953,181.859,-0.454304
2617,30345.6,173.626,181.496,-0.087374
2629,30484.8,173.3,181.135,0.089218
2641,30624,172.979,180.776,0.062594
2653,30763.2,172.659,180.419,0.012621
2665,30902.4,172.339,180.064,-0.171466
2677,31041.6,172.018,179.711,0.203959
2689,31180.8,171.699,179.359,-0.203116
2701,31320,171.378,179.01,-0.203581
2713,31459.2,171.057,178.661,-0.140338
2725,31598.4,170.736,178.314,-0.343049
2737,31737.6,170.417,177.969,-0.695271
2749,31876.8,170.102,177.625,-0.499232
2761,32016,169.788,177.283,-0.647234
2773,32155.2,169.478,176.942,-0.39251
2785,32294.4,169.17,176.603,-0.079391
2797,32433.6,168.862,176.266,-0.188559
2809,32572.8,168.555,175.931,-0.562158
2821,32712,168.247,175.595,-0.322695
2833,32851.2,167.937,175.263,-0.670761
2845,32990.4,167.63,174.932,-0.602567
2857,33129.6,167.326,174.602,-0.754778
2869,33268.8,167.026,174.273,-0.900904
2881,33408,166.728,173.946,-0.62945
2893,33547.2,166.434,173.6201,-0.338619
2905,33686.4,166.141,173.297,-0.201092
2917,33825.6,165.849,172.975,-0.236636
2929,33964.8,165.559,172.653,-0.30806
2941,34104,165.27,172.335,-0.572501
2953,34243.2,164.981,172.016,-0.683286
2965,34382.4,164.692,171.701,-0.180508
2977,34521.6,164.403,171.386,-0.182745
2989,34660.8,164.116,171.073,-0.112747
3001,34800,163.831,170.761,-0.365674
3013,34939.2,163.549,170.45,-0.315576
3025,35078.4,163.267,170.142,-0.183831
3037,35217.6,162.987,169.834,-0.029167
3049,35356.8,162.711,169.528,-0.203276
3061,35496,162.436,169.224,-0.359888
3073,35635.2,162.156,168.92,-0.212373
3085,35774.4,161.868,168.619,-0.347324
3097,35913.6,161.577,168.317,-0.244252
3109,36052.8,161.283,168.017,-0.16348
3121,36192,160.99,167.716,-0.209946
3133,36331.2,160.7,167.416,-0.397333
3145,36470.4,160.411,167.118,-0.231458
3157,36609.6,160.12,166.818,-0.182318
3169,36748.8,159.825,166.52,-0.239789
3181,36888,159.531,166.222,-0.13964
3193,37027.2,159.242,165.924,-0.103763
3205,37166.4,158.959,165.628,0.145026
3217,37305.6,158.676,165.332,-0.098715
3229,37444.8,158.389,165.036,0.023959
3241,37584,158.103,164.742,-0.060661
3253,37723.2,157.817,164.448,-0.019628
3265,37862.4,157.537,164.154,0.285064
3277,38001.6,157.26,163.861,0.070367
3289,38140.8,156.985,163.57,-0.020393
3301,38280,156.705,163.279,-0.132946
3313,38419.2,156.424,162.988,-0.179562
3325,38558.4,156.143,162.697,-0.20373
3337,38697.6,155.864,162.409,-0.407476
3349,38836.8,155.587,162.12,-0.005828
3361,38976,155.314,161.833,0.125801
3373,39115.2,155.049,161.546,0.351446
3385,39254.4,154.788,161.261,0.359583
3397,39393.6,154.529,160.976,0.382495
3409,39532.8,154.268,160.693,0.306264
3421,39672,154.006,160.411,0.316017
3433,39811.2,153.743,160.13,0.298291
3445,39950.4,153.485,159.849,0.136731
3457,40089.6,153.233,159.57,-0.110975
3469,40228.8,152.987,159.293,0.050717
3481,40368,152.741,159.017,0.277497
3493,40507.2,152.493,158.743,0.280895
3505,40646.4,152.243,158.47,0.14653
3517,40785.6,151.994,158.198,0.075602
3529,40924.8,151.749,157.928,-0.079486
3541,41064,151.51,157.658,0.336366
3553,41203.2,151.274,157.391,0.520591
3565,41342.4,151.038,157.124,0.59786
3577,41481.6,150.798,156.858,0.481748
3589,41620.8,150.558,156.595,0.346035
3601,41760,150.321,156.333,0.481898
3613,41899.2,150.09,156.071,0.578366
3625,42038.4,149.863,155.811,0.528977
3637,42177.6,149.641,155.554,0.437997
3649,42316.8,149.42,155.297,0.174006
3661,42456,149.202,155.043,0.26791
3673,42595.2,148.986,154.791,0.430339
3685,42734.4,148.771,154.54,0.195301
3697,42873.6,148.554,154.29,0.241566
3709,43012.8,148.337,154.042,0.259212
3721,43152,148.122,153.795,0.094473
3733,43291.2,147.906,153.549,0.277201
3745,43430.4,147.685,153.306,0.350393
3757,43569.6,147.461,153.064,0.155389
3769,43708.8,147.233,152.821,0.379798
3781,43848,147.005,152.581,0.419327
3793,43987.2,146.78,152.34,0.370658
3805,44126.4,146.56,152.101,0.261497
3817,44265.6,146.345,151.861,0.241066
3829,44404.8,146.132,151.625,0.290129
3841,44544,145.923,151.387,0.222048
3853,44683.2,145.717,151.153,0.183406
3865,44822.4,145.514,150.92,0.287156
3877,44961.6,145.311,150.687,0.123269
3889,45100.8,145.108,150.457,0.202643
3901,45240,144.906,150.227,0.160618
3913,45379.2,144.706,150,0.109897
3925,45518.4,144.506,149.773,0.041839
3937,45657.6,144.305,149.547,0.074652
3949,45796.8,144.101,149.323,-0.000247
3961,45936,143.899,149.099,0.071353
3973,46075.2,143.699,148.877,0.117151
3985,46214.4,143.497,148.6556,-0.023504
3997,46353.6,143.295,148.435,0.171885
4009,46492.8,143.094,148.215,0.156196
4021,46632,142.895,147.996,0.216173
4033,46771.2,142.694,147.778,0.253666
4045,46910.4,142.489,147.561,0.158426
4057,47049.6,142.282,147.344,0.294775
4069,47188.8,142.075,147.128,0.305548
4081,47328,141.872,146.913,0.184617
4093,47467.2,141.674,146.698,0.308431
4105,47606.4,141.481,146.484,0.222251
4117,47745.6,141.29,146.271,0.350362
4129,47884.8,141.103,146.059,0.358239
4141,48024,140.92,145.849,0.259802
4153,48163.2,140.74,145.64,0.349183
4165,48302.4,140.561,145.432,0.4493
4177,48441.6,140.385,145.225,0.597661
4189,48580.8,140.209,145.019,0.541864
4201,48720,140.035,144.816,0.43201
4213,48859.2,139.862,144.614,0.337326
4225,48998.4,139.69,144.412,0.151026
4237,49137.6,139.518,144.212,0.148648
4249,49276.8,139.35,144.014,0.102739
4261,49416,139.183,143.817,0.065858
4273,49555.2,139.013,143.621,0.12221
4285,49694.4,138.84,143.426,0.363943
4297,49833.6,138.663,143.232,0.348546
4309,49972.8,138.487,143.039,0.157405
4321,50112,138.312,142.848,0.153484
4333,50251.2,138.137,142.656,0.104205
4345,50390.4,137.959,142.465,0.229014
4357,50529.6,137.779,142.275,0.026293
4369,50668.8,137.598,142.085,0.099652
4381,50808,137.421,141.895,0.11356
4393,50947.2,137.247,141.706,0.287757
4405,51086.4,137.076,141.518,0.397968
4417,51225.6,136.906,141.331,0.269328
4429,51364.8,136.74,141.145,0.316828
4441,51504,136.577,140.96,0.292714
4453,51643.2,136.416,140.776,0.271642
4465,51782.4,136.256,140.593,0.199289
4477,51921.6,136.094,140.41,0.279628
4489,52060.8,135.932,140.2293,0.35341
4501,52200,135.773,140.049,0.334375
4513,52339.2,135.613,139.869,0.320474
4525,52478.4,135.452,139.691,0.403035
4537,52617.6,135.293,139.513,0.435256
4549,52756.8,135.135,139.337,0.259166
4561,52896,134.978,139.16,0.106616
4573,53035.2,134.814,138.985,0.185905
4585,53174.4,134.645,138.81,0.286912
4597,53313.6,134.469,138.635,0.33582
4609,53452.8,134.291,138.46,0.352793
4621,53592,134.112,138.284,0.340873
4633,53731.2,133.935,138.109,0.152075
4645,53870.4,133.765,137.934,0.149083
4657,54009.6,133.601,137.76,0.165424
4669,54148.8,133.444,137.586,0.108292
4681,54288,133.292,137.413,0.138239
4693,54427.2,133.143,137.241,0.098534
4705,54566.4,132.996,137.07,0.140592
4717,54705.6,132.853,136.9,0.1717
4729,54844.8,132.711,136.732,0.130863
4741,54984,132.563,136.563,0.177272
4753,55123.2,132.408,136.396,0.110829
4765,55262.4,132.249,136.23,0.204204
4777,55401.6,132.086,136.064,0.294847
4789,55540.8,131.923,135.897,0.097931
4801,55680,131.762,135.731,0.055747
4813,55819.2,131.606,135.5651,0.03808
4825,55958.4,131.454,135.4,0.102167
4837,56097.6,131.305,135.236,0.169549
4849,56236.8,131.161,135.072,0.251105
4861,56376,131.02,134.91,0.171445
4873,56515.2,130.88,134.748,0.237208
4885,56654.4,130.742,134.588,0.213224
4897,56793.6,130.605,134.428,0.136509
4909,56932.8,130.469,134.269,0.113724
4921,57072,130.335,134.112,0.161539
4933,57211.2,130.198,133.955,0.168083
4945,57350.4,130.059,133.799,0.061684
4957,57489.6,129.915,133.644,0.080178
4969,57628.8,129.771,133.489,0.110207
4981,57768,129.629,133.335,0.075498
4993,57907.2,129.492,133.181,0.021168
5005,58046.4,129.357,133.028,0.034327
5017,58185.6,129.225,132.877,0.02872
5029,58324.8,129.097,132.725,0.016656
5041,58464,128.971,132.575,-0.036566
5053,58603.2,128.846,132.426,-0.113558
5065,58742.4,128.725,132.279,-0.126041
5077,58881.6,128.604,132.131,-0.118599
5089,59020.8,128.483,131.986,-0.021581
5101,59160,128.363,131.842,0.00108
5113,59299.2,128.244,131.699,0.010268
5125,59438.4,128.124,131.556,0.018389
5137,59577.6,128.004,131.415,-0.057106
5149,59716.8,127.881,131.275,-0.024378
5161,59856,127.759,131.135,-0.039035
5173,59995.2,127.638,130.997,0.033641
5185,60134.4,127.519,130.859,0.026879
5197,60273.6,127.4,130.721,-0.066301
5209,60412.8,127.282,130.584,-0.106057
5221,60552,127.166,130.449,-0.078652
5233,60691.2,127.05,130.314,-0.022606
5245,60830.4,126.935,130.18,-0.02862
5257,60969.6,126.821,130.047,-0.045828
5269,61108.8,126.707,129.915,-0.004914
5281,61248,126.593,129.784,-0.00082
5293,61387.2,126.478,129.653,0.047027
5305,61526.4,126.361,129.522,0.093305
5317,61665.6,126.246,129.392,0.023823
5329,61804.8,126.13,129.264,-0.032062
5341,61944,126.011,129.135,-0.064995
5353,62083.2,125.884,129.007,-0.118562
5365,62222.4,125.75,128.878,-0.157652
5377,62361.6,125.612,128.75,-0.184158
5389,62500.8,125.471,128.621,-0.168069
5401,62640,125.326,128.492,-0.145074
5413,62779.2,125.176,128.361,-0.121769
5425,62918.4,125.025,128.229,-0.054315
5437,63057.6,124.878,128.098,-0.089952
5449,63196.8,124.738,127.965,-0.046944
5461,63336,124.606,127.833,-0.035098
5473,63475.2,124.482,127.7,-0.098462
5485,63614.4,124.364,127.568,-0.110165
5497,63753.6,124.244,127.437,-0.128535
5509,63892.8,124.121,127.306,-0.026614
5521,64032,123.995,127.175,-0.119026
5533,64171.2,123.871,127.045,-0.14522
5545,64310.4,123.75,126.914,-0.162284
5557,64449.6,123.633,126.785,-0.189943
5569,64588.8,123.522,126.656,-0.172278
5581,64728,123.415,126.528,-0.138152
5593,64867.2,123.313,126.401,-0.191778
5605,65006.4,123.214,126.275,-0.143664
5617,65145.6,123.116,126.15,-0.190953
5629,65284.8,123.021,126.027,-0.271557
5641,65424,122.926,125.905,-0.2575
5653,65563.2,122.833,125.784,-0.286788
5665,65702.4,122.741,125.664,-0.241919
5677,65841.6,122.646,125.546,-0.232566
5689,65980.8,122.548,125.428,-0.233856
5701,66120,122.45,125.311,-0.136093
5713,66259.2,122.352,125.194,-0.18477
5725,66398.4,122.256,125.079,-0.239415
5737,66537.6,122.162,124.965,-0.177438
5749,66676.8,122.07,124.852,-0.186566
5761,66816,121.982,124.739,-0.177967
5773,66955.2,121.895,124.627,-0.219231
5785,67094.4,121.808,124.517,-0.252371
5797,67233.6,121.721,124.408,-0.286684
5809,67372.8,121.635,124.3,-0.306359
5821,67512,121.548,124.192,-0.343296
5833,67651.2,121.463,124.086,-0.336455
5845,67790.4,121.38,123.98,-0.299896
5857,67929.6,121.296,123.876,-0.303206
5869,68068.8,121.215,123.771,-0.24023
5881,68208,121.134,123.669,-0.211185
5893,68347.2,121.051,123.567,-0.261811
5905,68486.4,120.969,123.465,-0.246366
5917,68625.6,120.887,123.365,-0.26271
5929,68764.8,120.806,123.266,-0.259179
5941,68904,120.72,123.166,-0.270147
5953,69043.2,120.626,123.068,-0.300475
5965,69182.4,120.524,122.97,-0.329133
5977,69321.6,120.419,122.871,-0.29629
5989,69460.8,120.312,122.773,-0.257705
6001,69600,120.206,122.673,-0.305219
6013,69739.2,120.102,122.573,-0.278295
6025,69878.4,120.005,122.474,-0.289038
6037,70017.6,119.91,122.375,-0.264928
6049,70156.8,119.817,122.275,-0.279107
6061,70296,119.716,122.177,-0.300171
6073,70435.2,119.608,122.0772,-0.317828
6085,70574.4,119.496,121.977,-0.278778
6097,70713.6,119.383,121.877,-0.284116
6109,70852.8,119.271,121.776,-0.285734
6121,70992,119.1603,121.675,-0.283048
6133,71131.2,119.054,121.573,-0.307363
6145,71270.4,118.949,121.471,-0.292904
6157,71409.6,118.848,121.37,-0.337964
6169,71548.8,118.751,121.268,-0.298467
6181,71688,118.659,121.166,-0.29607
6193,71827.2,118.574,121.065,-0.337186
6205,71966.4,118.489,120.966,-0.331924
6217,72105.6,118.397,120.866,-0.278464
6229,72244.8,118.298,120.766,-0.306653
6241,72384,118.194,120.667,-0.311184
6253,72523.2,118.088,120.566,-0.348106
6265,72662.4,117.983,120.466,-0.33618
6277,72801.6,117.88,120.366,-0.337847
6289,72940.8,117.779,120.266,-0.32648
6301,73080,117.681,120.165,-0.331911
6313,73219.2,117.585,120.065,-0.33764
6325,73358.4,117.492,119.965,-0.332055
6337,73497.6,117.401,119.866,-0.327333
6349,73636.8,117.317,119.766,-0.34324
6361,73776,117.239,119.668,-0.387084
6373,73915.2,117.166,119.572,-0.390239
6385,74054.4,117.095,119.475,-0.390487
6397,74193.6,117.026,119.38,-0.39044
6409,74332.8,116.957,119.286,-0.349572
6421,74472,116.893,119.193,-0.347451
6433,74611.2,116.831,119.102,-0.347953
6445,74750.4,116.769,119.012,-0.379413
6457,74889.6,116.708,118.922,-0.353918
6469,75028.8,116.649,118.835,-0.32956
6481,75168,116.587,118.7479,-0.316291
6493,75307.2,116.518,118.662,-0.310322
6505,75446.4,116.439,118.577,-0.280034
6517,75585.6,116.352,118.492,-0.291036
6529,75724.8,116.262,118.406,-0.276539
6541,75864,116.17,118.321,-0.286673
6553,76003.2,116.078,118.235,-0.297994
6565,76142.4,115.985,118.148,-0.322548
6577,76281.6,115.894,118.062,-0.295399
6589,76420.8,115.806,117.975,-0.280276
6601,76560,115.719,117.889,-0.294564
6613,76699.2,115.635,117.801,-0.272948
6625,76838.4,115.558,117.716,-0.289603
6637,76977.6,115.487,117.63,-0.285348
6649,77116.8,115.422,117.545,-0.31412
6661,77256,115.362,117.461,-0.303084
6673,77395.2,115.306,117.378,-0.333372
6685,77534.4,115.255,117.297,-0.355713
6697,77673.6,115.204,117.216,-0.341422
6709,77812.8,115.147,117.137,-0.345449
6721,77952,115.086,117.058,-0.344746
6733,78091.2,115.025,116.981,-0.339597
6745,78230.4,114.966,116.903,-0.335924
6757,78369.6,114.912,116.828,-0.315646
6769,78508.8,114.86,116.753,-0.31373
6781,78648,114.807,116.679,-0.307361
6793,78787.2,114.748,116.605,-0.308405
6805,78926.4,114.686,116.532,-0.314795
6817,79065.6,114.622,116.46,-0.304254
6829,79204.8,114.56,116.388,-0.305592
6841,79344,114.503,116.317,-0.303659
6853,79483.2,114.451,116.246,-0.309459
6865,79622.4,114.403,116.176,-0.31556
6877,79761.6,114.357,116.108,-0.315411
6889,79900.8,114.313,116.04,-0.318537
6901,80040,114.271,115.973,-0.317192
6913,80179.2,114.229,115.908,-0.319124
6925,80318.4,114.185,115.843,-0.319564
6937,80457.6,114.138,115.779,-0.315526
6949,80596.8,114.088,115.715,-0.314469
6961,80736,114.039,115.653,-0.315799
6973,80875.2,113.99,115.591,-0.318624
6985,81014.4,113.942,115.529,-0.30949
6997,81153.6,113.894,115.467,-0.28898
7009,81292.8,113.849,115.408,-0.271741
7021,81432,113.802,115.348,-0.26317
7033,81571.2,113.751,115.289,-0.2498
7045,81710.4,113.691,115.229,-0.251102
7057,81849.6,113.621,115.17,-0.253902
7069,81988.8,113.546,115.11,-0.257007
7081,82128,113.47,115.048,-0.253516
7093,82267.2,113.393,114.987,-0.250922
7105,82406.4,113.321,114.925,-0.241722
7117,82545.6,113.255,114.862,-0.243629
7129,82684.8,113.197,114.801,-0.24193
7141,82824,113.145,114.739,-0.232413
7153,82963.2,113.093,114.678,-0.228602
7165,83102.4,113.035,114.616,-0.23863
7177,83241.6,112.969,114.555,-0.245356
7189,83380.8,112.899,114.493,-0.251485
7201,83520,112.827,114.431,-0.245868
7213,83659.2,112.756,114.368,-0.239044
7225,83798.4,112.69,114.306,-0.24518
7237,83937.6,112.631,114.243,-0.239556
7249,84076.8,112.582,114.18,-0.23151
7261,84216,112.536,114.119,-0.23312
7273,84355.2,112.49,114.058,-0.23473
7285,84494.4,112.442,113.998,-0.242385
7297,84633.6,112.395,113.938,-0.249138
7309,84772.8,112.352,113.879,-0.255594
7321,84912,112.316,113.82,-0.262054
7333,85051.2,112.284,113.764,-0.272451
7345,85190.4,112.257,113.707,-0.279222
7357,85329.6,112.231,113.653,-0.285389
7369,85468.8,112.208,113.599,-0.304288
7381,85608,112.184,113.547,-0.321377
7393,85747.2,112.154,113.496,-0.339692
7405,85886.4,112.116,113.445,-0.342848
7417,86025.6,112.072,113.395,-0.348736
7429,86164.8,112.025,113.345,-0.356449
7441,86304,111.978,113.295,-0.352628
7453,86443.2,111.939,113.245,-0.360955
7465,86582.4,111.901,113.196,-0.359561
7477,86721.6,111.868,113.148,-0.368805
7489,86860.8,111.836,113.1,-0.369842
7501,87000,111.807,113.053,-0.367228
7513,87139.2,111.783,113.007,-0.374349
7525,87278.4,111.759,112.961,-0.371121
7537,87417.6,111.735,112.917,-0.375196
7549,87556.8,111.709,112.873,-0.374705
7561,87696,111.684,112.831,-0.382435
7573,87835.2,111.66,112.789,-0.388648
7585,87974.4,111.638,112.747,-0.387542
7597,88113.6,111.617,112.707,-0.390398
7609,88252.8,111.593,112.668,-0.393253
7621,88392,111.571,112.628,-0.398858
7633,88531.2,111.55,112.59,-0.403241
7645,88670.4,111.53,112.553,-0.403958
7657,88809.6,111.51,112.516,-0.40437
7669,88948.8,111.488,112.48,-0.402337
7681,89088,111.464,112.444,-0.407939
7693,89227.2,111.442,112.409,-0.39826
7705,89366.4,111.421,112.375,-0.401721
7717,89505.6,111.4,112.341,-0.397538
7729,89644.8,111.379,112.308,-0.405585
7741,89784,111.358,112.276,-0.403231
7753,89923.2,111.337,112.243,-0.401797
7765,90062.4,111.315,112.211,-0.403724
7777,90201.6,111.292,112.179,-0.405041
7789,90340.8,111.266,112.148,-0.415542
7801,90480,111.241,112.118,-0.418085
7813,90619.2,111.217,112.087,-0.418791
7825,90758.4,111.195,112.056,-0.423479
7837,90897.6,111.171,112.026,-0.424491
7849,91036.8,111.147,111.996,-0.421208
7861,91176,111.123,111.967,-0.432029
7873,91315.2,111.102,111.938,-0.425988
7885,91454.4,111.082,111.909,-0.43129
7897,91593.6,111.064,111.88,-0.423402
7909,91732.8,111.045,111.852,-0.438218
7921,91872,111.027,111.825,-0.430938
7933,92011.2,111.01,111.798,-0.432864
7945,92150.4,110.991,111.771,-0.430185
7957,92289.6,110.971,111.745,-0.426888
7969,92428.8,110.95,111.718,-0.431269
7981,92568,110.93,111.692,-0.431964
7993,92707.2,110.912,111.666,-0.43266
8005,92846.4,110.8953,111.641,-0.436428
8017,92985.6,110.878,111.616,-0.435891
8029,93124.8,110.863,111.592,-0.439043
8041,93264,110.849,111.567,-0.43912
8053,93403.2,110.835,111.545,-0.447805
8065,93542.4,110.819,111.521,-0.44942
8077,93681.6,110.802,111.497,-0.45042
8089,93820.8,110.786,111.474,-0.45388
8101,93960,110.77,111.451,-0.454263
8113,94099.2,110.753,111.429,-0.458646
8125,94238.4,110.735,111.407,-0.455948
8137,94377.6,110.717,111.385,-0.459714
8149,94516.8,110.701,111.363,-0.455478
8161,94656,110.746,111.342,-0.454007
8173,94795.2,111.239,111.328,-0.531062
8185,94934.4,112.081,111.339,-0.668088
8197,95073.6,112.931,111.383,-0.808594
8209,95212.8,113.686,111.456,-0.92973
8221,95352,114.356,111.557,-1.046528
8233,95491.2,114.971,111.679,-1.139621
8245,95630.4,115.56,111.824,-1.227444
8257,95769.6,116.137,111.987,-1.308472
8269,95908.8,116.714,112.168,-1.382703
8281,96048,117.292,112.366,-1.465741
8293,96187.2,117.873,112.579,-1.535546
8305,96326.4,118.455,112.808,-1.60436
8317,96465.6,119.037,113.052,-1.663642
8329,96604.8,119.618,113.31,-1.730146
8341,96744,120.2013,113.583,-1.78077
8353,96883.2,120.784,113.868,-1.846764
8365,97022.4,121.366,114.167,-1.899049
8377,97161.6,121.946,114.477,-1.953367
8389,97300.8,122.527,114.799,-2.006998
8401,97440,123.109,115.132,-2.054539
8413,97579.2,123.692,115.475,-2.099926
8425,97718.4,124.272,115.829,-2.13541
8437,97857.6,124.854,116.192,-2.187247
8449,97996.8,125.434,116.565,-2.220895
8461,98136,126.016,116.946,-2.268466
8473,98275.2,126.598,117.335,-2.301786
8485,98414.4,127.177,117.735,-2.332436
8497,98553.6,127.758,118.14,-2.360203
8509,98692.8,128.339,118.553,-2.396486
8521,98832,128.921,118.973,-2.41963
8533,98971.2,129.502,119.4,-2.446619
8545,99110.4,130.082,119.833,-2.474253
8557,99249.6,130.662,120.273,-2.496427
8569,99388.8,131.242,120.718,-2.517529
8581,99528,131.824,121.17,-2.545046
8593,99667.2,132.405,121.627,-2.559697
8605,99806.4,132.986,122.089,-2.577076
8617,99945.6,133.566,122.556,-2.580579
8629,100084.8,134.147,123.027,-2.597101
8641,100224,134.728,123.504,-2.617719
8653,100363.2,135.307,123.985,-2.637878
8665,100502.4,135.887,124.469,-2.656466
8677,100641.6,136.466,124.958,-2.662815
8689,100780.8,137.046,125.45,-2.676364
8701,100920,137.625,125.946,-2.679738
8713,101059.2,138.205,126.445,-2.698107
8725,101198.4,138.786,126.948,-2.706879
8737,101337.6,139.368,127.454,-2.710861
8749,101476.8,139.95,127.963,-2.720874
8761,101616,140.53,128.475,-2.723361
8773,101755.2,141.109,128.99,-2.734876
8785,101894.4,141.689,129.508,-2.737801
8797,102033.6,142.268,130.029,-2.74889
8809,102172.8,142.848,130.551,-2.748198
8821,102312,143.429,131.076,-2.742353
8833,102451.2,144.009,131.604,-2.74409
8845,102590.4,144.591,132.132,-2.741779
8857,102729.6,145.171,132.665,-2.743756
8869,102868.8,145.752,133.199,-2.750806
8881,103008,146.331,133.734,-2.750341
8893,103147.2,146.911,134.271,-2.755465
8905,103286.4,147.491,134.81,-2.750203
8917,103425.6,148.071,135.351,-2.740197
8929,103564.8,148.651,135.894,-2.741069
8941,103704,149.2312,136.438,-2.73615
8953,103843.2,149.813,136.985,-2.736506
8965,103982.4,150.394,137.531,-2.733745
8977,104121.6,150.974,138.08,-2.730727
8989,104260.8,151.553,138.629,-2.727479
9001,104400,152.132,139.181,-2.722171
9013,104539.2,152.712,139.734,-2.710689
9025,104678.4,153.292,140.287,-2.705226
9037,104817.6,153.871,140.841,-2.702128
9049,104956.8,154.453,141.397,-2.69083
9061,105096,155.033,141.955,-2.687275
9073,105235.2,155.615,142.513,-2.680947
9085,105374.4,156.195,143.073,-2.673394
9097,105513.6,156.774,143.633,-2.671736
9109,105652.8,157.353,144.194,-2.659222
9121,105792,157.933,144.756,-2.647042
9133,105931.2,158.513,145.32,-2.636937
9145,106070.4,159.092,145.882,-2.634452
9157,106209.6,159.672,146.447,-2.624224
9169,106348.8,160.254,147.011,-2.614338
9181,106488,160.836,147.578,-2.602255
9193,106627.2,161.416,148.144,-2.592496
9205,106766.4,161.994,148.711,-2.588986
9217,106905.6,162.573,149.279,-2.575645
9229,107044.8,163.153,149.847,-2.564368
9241,107184,163.732,150.415,-2.548741
9253,107323.2,164.312,150.986,-2.54397
9265,107462.4,164.894,151.556,-2.530213
9277,107601.6,165.476,152.126,-2.517042
9289,107740.8,166.056,152.697,-2.49982
9301,107880,166.635,153.269,-2.494331
9313,108019.2,167.215,153.841,-2.482607
9325,108158.4,167.794,154.414,-2.470948
9337,108297.6,168.374,154.986,-2.461063
9349,108436.8,168.954,155.56,-2.440209
9361,108576,169.534,156.132,-2.435512
9373,108715.2,170.115,156.706,-2.426316
9385,108854.4,170.695,157.281,-2.412178
9397,108993.6,171.276,157.856,-2.39623
9409,109132.8,171.855,158.431,-2.387962
9421,109272,172.435,159.006,-2.368411
9433,109411.2,173.015,159.581,-2.363112
9445,109550.4,173.595,160.157,-2.348448
9457,109689.6,174.174,160.733,-2.340673
9469,109828.8,174.754,161.31,-2.328743
9481,109968,175.335,161.887,-2.31712
9493,110107.2,175.916,162.463,-2.307667
9505,110246.4,176.496,163.04,-2.298973
9517,110385.6,177.075,163.617,-2.290797
9529,110524.8,177.655,164.195,-2.275509
9541,110664,178.236,164.773,-2.258927
9553,110803.2,178.814,165.351,-2.249107
9565,110942.4,179.393,165.929,-2.234305
9577,111081.6,179.973,166.508,-2.228052
9589,111220.8,180.554,167.086,-2.215684
9601,111360,181.134,167.665,-2.208168
9613,111499.2,181.715,168.245,-2.19001
9625,111638.4,182.296,168.824,-2.176719
9637,111777.6,182.877,169.404,-2.167345
9649,111916.8,183.458,169.985,-2.15125
9661,112056,184.038,170.5661,-2.141324
9673,112195.2,184.616,171.147,-2.137988
9685,112334.4,185.194,171.728,-2.121209
9697,112473.6,185.775,172.31,-2.109669
9709,112612.8,186.354,172.892,-2.091931
9721,112752,186.933,173.474,-2.080307
9733,112891.2,187.514,174.057,-2.073866
9745,113030.4,188.095,174.64,-2.067915
9757,113169.6,188.677,175.223,-2.05291
9769,113308.8,189.256,175.806,-2.035996
9781,113448,189.835,176.39,-2.024901
9793,113587.2,190.416,176.974,-2.014088
9805,113726.4,190.998,177.559,-1.993879
9817,113865.6,191.577,178.143,-1.987809
9829,114004.8,192.158,178.729,-1.968855
9841,114144,192.738,179.315,-1.960474
9853,114283.2,193.318,179.901,-1.954763
9865,114422.4,193.897,180.486,-1.930596
9877,114561.6,194.477,181.072,-1.911535
9889,114700.8,195.057,181.658,-1.890396
9901,114840,195.637,182.245,-1.871291
9913,114979.2,196.217,182.831,-1.866747
9925,115118.4,196.797,183.419,-1.861793
9937,115257.6,197.378,184.006,-1.860743
9949,115396.8,197.957,184.593,-1.848129
9961,115536,198.537,185.181,-1.833425
9973,115675.2,199.116,185.769,-1.814305
9985,115814.4,199.697,186.356,-1.779488
9997,115953.6,200.276,186.943,-1.771645
10009,116092.8,200.855,187.531,-1.759381
10021,116232,201.436,188.119,-1.749928
10033,116371.2,202.016,188.708,-1.72803
10045,116510.4,202.596,189.296,-1.697137
10057,116649.6,203.176,189.885,-1.674599
10069,116788.8,203.757,190.473,-1.643946
10081,116928,204.337,191.061,-1.649566
10093,117067.2,204.917,191.65,-1.645313
10105,117206.4,205.496,192.239,-1.637321
10117,117345.6,206.076,192.828,-1.642744
10129,117484.8,206.656,193.418,-1.638352
10141,117624,207.237,194.006,-1.625657
10153,117763.2,207.817,194.596,-1.583903
10165,117902.4,208.396,195.186,-1.584025
10177,118041.6,208.977,195.775,-1.537541
10189,118180.8,209.5577,196.365,-1.549974
10201,118320,210.137,196.954,-1.530988
10213,118459.2,210.716,197.545,-1.523614
10225,118598.4,211.296,198.134,-1.502701
10237,118737.6,211.877,198.724,-1.490084
10249,118876.8,212.457,199.314,-1.502133
10261,119016,213.037,199.904,-1.479138
10273,119155.2,213.618,200.494,-1.444578
10285,119294.4,214.197,201.084,-1.453405
10297,119433.6,214.778,201.675,-1.429817
10309,119572.8,215.357,202.266,-1.443741
10321,119712,215.937,202.856,-1.425953
10333,119851.2,216.517,203.447,-1.40519
10345,119990.4,217.098,204.037,-1.401103
10357,120129.6,217.678,204.628,-1.36349
10369,120268.8,218.258,205.218,-1.316725
10381,120408,218.839,205.809,-1.284421
10393,120547.2,219.419,206.4,-1.29989
10405,120686.4,219.998,206.991,-1.29484
10417,120825.6,220.577,207.582,-1.30906
10429,120964.8,221.159,208.173,-1.280004
10441,121104,221.738,208.764,-1.245052
10453,121243.2,222.317,209.355,-1.207417
10465,121382.4,222.897,209.946,-1.204579
10477,121521.6,223.476,210.538,-1.142068
10489,121660.8,224.056,211.128,-1.149091
10501,121800,224.636,211.72,-1.152326
10513,121939.2,225.216,212.31,-1.153384
10525,122078.4,225.798,212.901,-1.190044
10537,122217.6,226.377,213.493,-1.095075
10549,122356.8,226.958,214.084,-1.084203
10561,122496,227.538,214.675,-1.117872
10573,122635.2,228.117,215.266,-1.104062
10585,122774.4,228.699,215.857,-1.108167
10597,122913.6,229.278,216.449,-1.101677
10609,123052.8,229.86,217.041,-1.086012
10621,123192,230.439,217.632,-1.091905
10633,123331.2,231.019,218.223,-1.116138
10645,123470.4,231.598,218.815,-1.011443
10657,123609.6,232.178,219.406,-0.975383
10669,123748.8,232.757,219.998,-0.990169
10681,123888,233.336,220.589,-0.957549
10693,124027.2,233.917,221.18,-0.970201
10705,124166.4,234.498,221.771,-0.998507
10717,124305.6,235.078,222.362,-0.954232
10729,124444.8,235.657,222.954,-0.942714
10741,124584,236.239,223.546,-0.954183
10753,124723.2,236.818,224.138,-0.985269
10765,124862.4,237.397,224.729,-0.874148
10777,125001.6,237.977,225.32,-0.86647
10789,125140.8,238.558,225.912,-0.862269
10801,125280,239.138,226.503,-0.823792
10813,125419.2,239.718,227.095,-0.804553
10825,125558.4,240.3,227.686,-0.795687
10837,125697.6,240.879,228.278,-0.781504
10849,125836.8,241.459,228.869,-0.818825
10861,125976,242.038,229.461,-0.809987
10873,126115.2,242.618,230.052,-0.80365
10885,126254.4,243.198,230.644,-0.795243
10897,126393.6,243.777,231.235,-0.760121
10909,126532.8,244.356,231.826,-0.786274
10921,126672,244.937,232.418,-0.768851
10933,126811.2,245.517,233.008,-0.688745
10945,126950.4,246.098,233.6,-0.692818
10957,127089.6,246.679,234.19,-0.716492
10969,127228.8,247.258,234.782,-0.668944
10981,127368,247.837,235.373,-0.634676
10993,127507.2,248.418,235.966,-0.583399
11005,127646.4,248.997,236.557,-0.506357
11017,127785.6,249.577,237.149,-0.55149
11029,127924.8,250.156,237.739,-0.615238
11041,128064,250.737,238.331,-0.647433
11053,128203.2,251.316,238.923,-0.629137
11065,128342.4,251.894,239.513,-0.576566
11077,128481.6,252.472,240.104,-0.583926
11089,128620.8,253.054,240.695,-0.594249
11101,128760,253.634,241.285,-0.592656
11113,128899.2,254.215,241.877,-0.571941
11125,129038.4,254.796,242.467,-0.590787
11137,129177.6,255.377,243.058,-0.586247
11149,129316.8,255.958,243.649,-0.54674
11161,129456,256.537,244.239,-0.56593
11173,129595.2,257.116,244.83,-0.578617
11185,129734.4,257.694,245.421,-0.532429
11197,129873.6,258.274,246.011,-0.491134
11209,130012.8,258.855,246.602,-0.489142
11221,130152,259.436,247.192,-0.531109
11233,130291.2,260.016,247.782,-0.457621
11245,130430.4,260.597,248.373,-0.466872
11257,130569.6,261.176,248.964,-0.475923
11269,130708.8,261.756,249.554,-0.447597
11281,130848,262.336,250.144,-0.46873
11293,130987.2,262.917,250.734,-0.42238
11305,131126.4,263.498,251.325,-0.40753
11317,131265.6,264.079,251.915,-0.381039
11329,131404.8,264.659,252.505,-0.335652
11341,131544,265.24,253.096,-0.352977
11353,131683.2,265.82,253.687,-0.364815
11365,131822.4,266.398,254.278,-0.379902
11377,131961.6,266.979,254.868,-0.404763
11389,132100.8,267.56,255.459,-0.388778
11401,132240,268.142,256.049,-0.371739
11413,132379.2,268.722,256.64,-0.360888
11425,132518.4,269.302,257.23,-0.339572
11437,132657.6,269.882,257.822,-0.298245
11449,132796.8,270.462,258.413,-0.267105
11461,132936,271.043,259.005,-0.283625
11473,133075.2,271.624,259.5958,-0.283363
11485,133214.4,272.203,260.187,-0.271045
11497,133353.6,272.781,260.778,-0.273495
11509,133492.8,273.359,261.37,-0.255821
11521,133632,273.937,261.961,-0.237642
11533,133771.2,274.516,262.552,-0.215193
11545,133910.4,275.097,263.142,-0.228798
11557,134049.6,275.678,263.733,-0.229491
11569,134188.8,276.258,264.324,-0.239127
11581,134328,276.838,264.915,-0.22641
11593,134467.2,277.418,265.506,-0.209609
11605,134606.4,277.999,266.096,-0.207289
11617,134745.6,278.579,266.686,-0.189288
11629,134884.8,279.159,267.277,-0.193758
11641,135024,279.74,267.867,-0.182919
11653,135163.2,280.319,268.458,-0.18401
11665,135302.4,280.899,269.048,-0.173732
11677,135441.6,281.478,269.638,-0.170926
11689,135580.8,282.055,270.229,-0.164047
11701,135720,282.634,270.82,-0.132371
11713,135859.2,283.215,271.409,-0.129785
11725,135998.4,283.795,271.999,-0.135519
11737,136137.6,284.378,272.589,-0.118264
11749,136276.8,284.959,273.179,-0.106512
11761,136416,285.541,273.769,-0.097074
11773,136555.2,286.119,274.359,-0.083418
11785,136694.4,286.697,274.949,-0.060092
11797,136833.6,287.277,275.539,-0.041028
11809,136972.8,287.857,276.129,-0.030264
11821,137112,288.438,276.718,-0.033054
11833,137251.2,289.019,277.308,-0.039881
11845,137390.4,289.601,277.898,-0.033531
11857,137529.6,290.18,278.489,-0.013858
11869,137668.8,290.758,279.078,-0.006311
11881,137808,291.336,279.667,0.002277
11893,137947.2,291.916,280.258,0.009277
11905,138086.4,292.497,280.847,0.016791
11917,138225.6,293.077,281.436,0.027441
11929,138364.8,293.658,282.026,0.042093
11941,138504,294.24,282.615,0.052885
11953,138643.2,294.82,283.205,0.063313
11965,138782.4,295.397,283.795,0.077735
11977,138921.6,295.9753,284.384,0.107464
11989,139060.8,296.553,284.972,0.123578
12001,139200,297.134,285.561,0.14767
12013,139339.2,297.715,286.15,0.167559
12025,139478.4,298.296,286.738,0.20045
12037,139617.6,298.88,287.327,0.239199
12049,139756.8,299.32,287.914,0.264888
12061,139896,299.313,288.483,0.320368
12073,140035.2,299.271,289.024,0.300078
12085,140174.4,299.234,289.532,0.251946
12097,140313.6,299.212,290.012,0.209931
12109,140452.8,299.2,290.466,0.183707
12121,140592,299.194,290.894,0.186561
12133,140731.2,299.192,291.299,0.196677
12145,140870.4,299.189,291.682,0.210935
12157,141009.6,299.184,292.043,0.229677
12169,141148.8,299.178,292.385,0.232701
12181,141288,299.176,292.706,0.257299
12193,141427.2,299.176,293.01,0.267568
12205,141566.4,299.175,293.297,0.280939
12217,141705.6,299.176,293.568,0.307411
12229,141844.8,299.174,293.824,0.340424
12241,141984,299.173,294.066,0.367911
12253,142123.2,299.17,294.293,0.389704
12265,142262.4,299.167,294.509,0.406325
12277,142401.6,299.167,294.712,0.421223
12289,142540.8,299.167,294.905,0.436119
12301,142680,299.168,295.088,0.454456
12313,142819.2,299.166,295.261,0.487766
12325,142958.4,299.164,295.426,0.514701
12337,143097.6,299.163,295.581,0.52804
12349,143236.8,299.161,295.729,0.550842
12361,143376,299.161,295.8667,0.579146
12373,143515.2,299.157,295.999,0.589731
12385,143654.4,299.152,296.123,0.607198
12397,143793.6,299.149,296.239,0.612285
12409,143932.8,299.151,296.348,0.61239
12421,144072,299.152,296.453,0.616108
12433,144211.2,299.1547,296.551,0.616563
12445,144350.4,299.155,296.643,0.631115
12457,144489.6,299.153,296.73,0.648762
12469,144628.8,299.152,296.813,0.659363
12481,144768,299.151,296.89,0.663951
12493,144907.2,299.152,296.963,0.671979
12505,145046.4,299.153,297.032,0.679663
12517,145185.6,299.149,297.096,0.686492
12529,145324.8,299.144,297.157,0.70277
12541,145464,299.142,297.214,0.706166
12553,145603.2,299.145,297.267,0.708533
12565,145742.4,299.147,297.316,0.707812
12577,145881.6,299.144,297.365,0.722033
12589,146020.8,299.14,297.408,0.722174
12601,146160,299.138,297.449,0.726094
12613,146299.2,299.141,297.488,0.72641
12625,146438.4,299.145,297.524,0.735829
12637,146577.6,299.15,297.557,0.729794
12649,146716.8,299.149,297.59,0.74677
12661,146856,299.146,297.621,0.745545
12673,146995.2,299.147,297.65,0.746726
12685,147134.4,299.148,297.677,0.749969
12697,147273.6,299.15,297.702,0.753555
12709,147412.8,299.145,297.726,0.756628
12721,147552,299.141,297.748,0.755067
12733,147691.2,299.139,297.768,0.758485
12745,147830.4,299.139,297.787,0.760188
12757,147969.6,299.144,297.804,0.7576
12769,148108.8,299.143,297.821,0.761193
12781,148248,299.138,297.836,0.764786
12793,148387.2,299.137,297.85,0.763059
12805,148526.4,299.14,297.862,0.766311
12817,148665.6,299.141,297.873,0.76081
12829,148804.8,299.149,297.885,0.753419
12841,148944,299.155,297.897,0.760278
12853,149083.2,299.161,297.908,0.758037
12865,149222.4,299.162,297.919,0.748931
12877,149361.6,299.163,297.931,0.757849
12889,149500.8,299.16,297.94,0.761103
12901,149640,299.158,297.952,0.771565
12913,149779.2,299.157,297.961,0.777223
12925,149918.4,299.156,297.971,0.770178
12937,150057.6,299.156,297.98,0.766395
12949,150196.8,299.153,297.988,0.778747
12961,150336,299.145,297.996,0.778054
12973,150475.2,299.138,298.001,0.778222
12985,150614.4,299.139,298.007,0.783882
12997,150753.6,299.14,298.011,0.776841
13009,150892.8,299.146,298.015,0.774607
13021,151032,299.147,298.02,0.77426
13033,151171.2,299.143,298.024,0.777346
13045,151310.4,299.14,298.027,0.773224
13057,151449.6,299.14,298.03,0.775969
13069,151588.8,299.144,298.032,0.781975
13081,151728,299.146,298.033,0.785578
13093,151867.2,299.151,298.036,0.787978
13105,152006.4,299.15,298.04,0.785401
13117,152145.6,299.144,298.041,0.780251
13129,152284.8,299.142,298.042,0.780422
13141,152424,299.145,298.044,0.781794
13153,152563.2,299.146,298.045,0.781106
13165,152702.4,299.15,298.046,0.779561
13177,152841.6,299.149,298.048,0.787454
13189,152980.8,299.144,298.049,0.781961
13201,153120,299.141,298.049,0.780931
13213,153259.2,299.144,298.049,0.78282
13225,153398.4,299.146,298.049,0.786767
13237,153537.6,299.152,298.049,0.776125
13249,153676.8,299.149,298.049,0.773379
13261,153816,299.142,298.05,0.780244
13273,153955.2,299.14,298.049,0.771835
13285,154094.4,299.142,298.0481,0.777499
13297,154233.6,299.143,298.048,0.769261
13309,154372.8,299.15,298.047,0.767031
13321,154512,299.151,298.046,0.779732
13333,154651.2,299.144,298.046,0.787456
13345,154790.4,299.14,298.045,0.784024
13357,154929.6,299.141,298.043,0.777675
13369,155068.8,299.142,298.042,0.768064
13381,155208,299.148,298.041,0.763088
13393,155347.2,299.147,298.041,0.777848
13405,155486.4,299.145,298.039,0.765663
13417,155625.6,299.141,298.0369,0.764979
13429,155764.8,299.142,298.035,0.758458
13441,155904,299.143,298.034,0.757429
13453,156043.2,299.148,298.032,0.757087
13465,156182.4,299.15,298.03,0.770991
13477,156321.6,299.145,298.029,0.755029
13489,156460.8,299.137,298.027,0.74868
13501,156600,299.135,298.025,0.741817
13513,156739.2,299.138,298.022,0.740446
13525,156878.4,299.14,298.018,0.740963
13537,157017.6,299.149,298.016,0.776837
13549,157156.8,299.146,298.014,0.769973
13561,157296,299.14,298.012,0.767915
13573,157435.2,299.137,298.009,0.761052
13585,157574.4,299.139,298.005,0.759338
13597,157713.6,299.144,298.002,0.786632
13609,157852.8,299.151,297.999,0.779596
13621,157992,299.159,297.998,0.78303
13633,158131.2,299.164,297.998,0.785262
13645,158270.4,299.166,297.998,0.783202
13657,158409.6,299.156,297.998,0.765866
13669,158548.8,299.139,297.998,0.761404
13681,158688,299.128,297.995,0.765868
13693,158827.2,299.127,297.992,0.770162
13705,158966.4,299.131,297.9882,0.773426
13717,159105.6,299.137,297.985,0.754204
13729,159244.8,299.149,297.981,0.739788
13741,159384,299.145,297.979,0.744081
13753,159523.2,299.132,297.975,0.751808
13765,159662.4,299.122,297.971,0.743573
13777,159801.6,299.125,297.965,0.739114
13789,159940.8,299.129,297.96,0.739976
13801,160080,299.14,297.954,0.736547
13813,160219.2,299.151,297.951,0.740325
13825,160358.4,299.155,297.948,0.742903
13837,160497.6,299.159,297.945,0.732949
13849,160636.8,299.159,297.945,0.733636
13861,160776,299.16,297.943,0.7278
13873,160915.2,299.146,297.941,0.722653
13885,161054.4,299.126,297.939,0.711497
13897,161193.6,299.118,297.933,0.700515
13909,161332.8,299.122,297.927,0.702235
13921,161472,299.129,297.922,0.707046
13933,161611.2,299.137,297.917,0.708251
13945,161750.4,299.149,297.913,0.722501
13957,161889.6,299.148,297.909,0.722332
13969,162028.8,299.14,297.905,0.703453
13981,162168,299.134,297.901,0.697276
13993,162307.2,299.135,297.895,0.700713
14005,162446.4,299.14,297.891,0.703462
14017,162585.6,299.15,297.887,0.694711
14029,162724.8,299.154,297.884,0.692824
14041,162864,299.158,297.882,0.692825
14053,163003.2,299.147,297.879,0.684072
14065,163142.4,299.135,297.876,0.688366
14077,163281.6,299.132,297.872,0.694721
14089,163420.8,299.138,297.867,0.710345
14101,163560,299.144,297.863,0.726313
14113,163699.2,299.148,297.86,0.719792
14125,163838.4,299.157,297.858,0.714987
14137,163977.6,299.159,297.856,0.718936
14149,164116.8,299.154,297.854,0.727864
14161,164256,299.151,297.853,0.72735
14173,164395.2,299.151,297.85,0.715336
14185,164534.4,299.154,297.849,0.712933
14197,164673.6,299.16,297.848,0.706582
14209,164812.8,299.159,297.848,0.703149
14221,164952,299.151,297.848,0.6992
14233,165091.2,299.147,297.847,0.696626
14245,165230.4,299.149,297.846,0.69697
14257,165369.6,299.151,297.845,0.697143
14269,165508.8,299.157,297.844,0.711735
14281,165648,299.161,297.844,0.720662
14293,165787.2,299.165,297.845,0.725982
14305,165926.4,299.159,297.846,0.722376
14317,166065.6,299.153,297.847,0.739543
14329,166204.8,299.152,297.848,0.741431
14341,166344,299.155,297.848,0.735594
14353,166483.2,299.162,297.85,0.733189
14365,166622.4,299.161,297.852,0.734046
14377,166761.6,299.168,297.854,0.736791
14389,166900.8,299.169,297.857,0.75138
14401,167040,299.162,297.859,0.762365
14413,167179.2,299.158,297.862,0.765625
14425,167318.4,299.159,297.864,0.758756
14437,167457.6,299.16,297.867,0.756694
14449,167596.8,299.162,297.87,0.750684
14461,167736,299.166,297.874,0.736262
14473,167875.2,299.17,297.878,0.714458
14485,168014.4,299.168,297.882,0.716343
14497,168153.6,299.166,297.887,0.723378
14509,168292.8,299.164,297.891,0.722001
14521,168432,299.167,297.896,0.740881
14533,168571.2,299.169,297.901,0.758558
14545,168710.4,299.17,297.907,0.767308
14557,168849.6,299.172,297.912,0.773312
14569,168988.8,299.169,297.918,0.782405
14581,169128,299.169,297.924,0.781885
14593,169267.2,299.168,297.931,0.773813
14605,169406.4,299.165,297.937,0.769688
14617,169545.6,299.161,297.943,0.770885
14629,169684.8,299.162,297.949,0.771224
14641,169824,299.161,297.954,0.766242
14653,169963.2,299.163,297.959,0.774478
14665,170102.4,299.169,297.966,0.774129
14677,170241.6,299.172,297.972,0.79455
14689,170380.8,299.172,297.979,0.798836
14701,170520,299.172,297.986,0.797114
14713,170659.2,299.171,297.993,0.8129
14725,170798.4,299.168,298,0.801737
14737,170937.6,299.161,298.007,0.810657
14749,171076.8,299.155,298.013,0.80413
14761,171216,299.152,298.019,0.803611
14773,171355.2,299.154,298.023,0.807383
14785,171494.4,299.158,298.028,0.811155
14797,171633.6,299.162,298.033,0.806174
14809,171772.8,299.163,298.039,0.798274
14821,171912,299.158,298.045,0.820754
14833,172051.2,299.155,298.05,0.824354
14845,172190.4,299.158,298.054,0.823321
14857,172329.6,299.167,298.059,0.825204
14869,172468.8,299.172,298.066,0.821252
14881,172608,299.178,298.071,0.820046
14893,172747.2,299.182,298.078,0.819525
14897,172793.6,299.183,298.081,0.814374