File: z_unorganized_archive/i_data/0.10Kmin/Blank.csv
Blank_run2 for H2O-NH3  Specific Heat - Large HF,,,,
Creation Date : 8/15/2022 9:37:04 AM,,,,
User : admin,,,,
,,,,
HeatFlow :,,,,
 Initial Mass : 0 mg,,,,
 Molar Mass : 17 g/mol,,,,
,,,,
Index,Time(s),Furnace Temperature(K),Sample Temperature(K),HeatFlow(mW)
1,0,299.146,299.173,10.3121
13,202.8,299.101,299.171,4.152079
25,405.6,299.012,299.163,1.54234
37,608.4,298.861,299.147,0.441998
49,811.2,298.637,299.117,-0.024175
61,1014,298.335,299.068,-0.228732
73,1216.8,297.95,298.995,-0.323231
85,1419.6,297.48,298.893,-0.362706
97,1622.4,296.923,298.758,-0.378533
109,1825.2,296.261,298.584,-0.37568
121,2028,295.465,298.366,-0.368726
133,2230.8,294.515,298.093,-0.371227
145,2433.6,293.409,297.759,-0.360361
157,2636.4,292.174,297.354,-0.347108
169,2839.2,290.852,296.879,-0.328714
181,3042,289.462,296.332,-0.302762
193,3244.8,288.029,295.713,-0.25805
205,3447.6,286.561,295.025,-0.200903
217,3650.4,285.073,294.274,-0.117672
229,3853.2,283.58,293.466,-0.035866
241,4056,282.092,292.61,-0.009147
253,4258.8,280.612,291.707,-0.023494
265,4461.6,279.139,290.754,0.039255
277,4664.4,277.68,289.757,0.127933
289,4867.2,276.238,288.722,0.206936
301,5070,274.817,287.657,0.271384
313,5272.8,273.417,286.564,0.330443
325,5475.6,272.04,285.449,0.384097
337,5678.4,270.684,284.317,0.429891
349,5881.2,269.351,283.169,0.466928
361,6084,268.038,282.01,0.518055
373,6286.8,266.74,280.84,0.600301
385,6489.6,265.46,279.663,0.655648
397,6692.4,264.2,278.482,0.745031
409,6895.2,262.958,277.297,0.866848
421,7098,261.737,276.112,1.005063
433,7300.8,260.532,274.927,1.083804
445,7503.6,259.344,273.743,1.187343
457,7706.4,258.167,272.562,1.184094
469,7909.2,257.004,271.386,1.256991
481,8112,255.85,270.212,1.234724
493,8314.8,254.707,269.044,1.283455
505,8517.6,253.572,267.881,1.386811
517,8720.4,252.447,266.721,1.631327
529,8923.2,251.332,265.57,1.619413
541,9126,250.228,264.422,1.597107
553,9328.8,249.138,263.282,1.487683
565,9531.6,248.064,262.149,1.48107
577,9734.4,247.001,261.023,1.46618
589,9937.2,245.946,259.905,1.558019
601,10140,244.902,258.795,2.048797
613,10342.8,243.865,257.692,1.94306
625,10545.6,242.839,256.597,1.759855
637,10748.4,241.818,255.51,1.838019
649,10951.2,240.8063,254.431,1.885953
661,11154,239.803,253.36,2.168793
673,11356.8,238.808,252.296,2.199821
685,11559.6,237.821,251.241,1.902629
697,11762.4,236.842,250.193,2.119168
709,11965.2,235.871,249.153,2.016874
721,12168,234.906,248.121,1.862808
733,12370.8,233.951,247.096,2.225408
745,12573.6,233,246.079,1.965586
757,12776.4,232.056,245.07,1.86801
769,12979.2,231.118,244.066,2.09022
781,13182,230.185,243.072,2.511311
793,13384.8,229.259,242.083,2.441318
805,13587.6,228.345,241.101,2.455505
817,13790.4,227.441,240.127,2.623636
829,13993.2,226.546,239.161,2.390891
841,14196,225.658,238.202,2.237694
853,14398.8,224.776,237.25,2.177975
865,14601.6,223.904,236.307,2.28171
877,14804.4,223.039,235.368,2.560355
889,15007.2,222.18,234.439,2.310234
901,15210,221.324,233.517,2.46652
913,15412.8,220.473,232.601,2.453002
925,15615.6,219.629,231.692,2.278005
937,15818.4,218.794,230.789,2.39544
949,16021.2,217.965,229.894,2.197792
961,16224,217.14,229.005,2.465287
973,16426.8,216.3221,228.123,2.329255
985,16629.6,215.512,227.247,2.507155
997,16832.4,214.708,226.378,2.266817
1009,17035.2,213.91,225.515,1.933403
1021,17238,213.114,224.658,1.893802
1033,17440.8,212.324,223.809,1.607351
1045,17643.6,211.5395,222.965,2.206117
1057,17846.4,210.76,222.126,2.06214
1069,18049.2,209.986,221.293,2.653791
1081,18252,209.219,220.466,2.522149
1093,18454.8,208.463,219.646,2.454205
1105,18657.6,207.714,218.831,1.907591
1117,18860.4,206.967,218.024,1.911051
1129,19063.2,206.226,217.222,1.864419
1141,19266,205.491,216.426,1.771721
1153,19468.8,204.759,215.636,1.662162
1165,19671.6,204.029,214.852,1.536823
1177,19874.4,203.305,214.073,1.787465
1189,20077.2,202.582,213.299,2.220649
1201,20280,201.859,212.528,2.03251
1213,20482.8,201.14,211.763,2.096335
1225,20685.6,200.43,211.002,2.168747
1237,20888.4,199.721,210.248,2.344375
1249,21091.2,199.011,209.496,1.940939
1261,21294,198.305,208.75,2.056839
1273,21496.8,197.608,208.006,1.90983
1285,21699.6,196.924,207.268,2.172806
1297,21902.4,196.251,206.536,1.614273
1309,22105.2,195.586,205.809,1.486067
1321,22308,194.932,205.089,1.534967
1333,22510.8,194.286,204.373,1.613576
1345,22713.6,193.645,203.664,1.311553
1357,22916.4,193,202.961,2.046959
1369,23119.2,192.346,202.262,2.062716
1381,23322,191.685,201.567,1.649535
1393,23524.8,191.021,200.875,1.615981
1405,23727.6,190.362,200.186,1.736764
1417,23930.4,189.71,199.5,1.754089
1429,24133.2,189.074,198.82,1.247936
1441,24336,188.451,198.142,1.442166
1453,24538.8,187.842,197.469,1.479206
1465,24741.6,187.244,196.804,1.489103
1477,24944.4,186.654,196.143,1.005148
1489,25147.2,186.072,195.489,1.123646
1501,25350,185.495,194.84,0.407272
1513,25552.8,184.922,194.198,0.744699
1525,25755.6,184.352,193.561,0.957012
1537,25958.4,183.787,192.929,1.166579
1549,26161.2,183.225,192.304,1.14305
1561,26364,182.666,191.683,0.957048
1573,26566.8,182.107,191.067,1.067323
1585,26769.6,181.55,190.455,1.175695
1597,26972.4,180.995,189.849,0.900688
1609,27175.2,180.444,189.246,0.574962
1621,27378,179.898,188.648,0.655467
1633,27580.8,179.356,188.054,0.77786
1645,27783.6,178.818,187.464,0.73511
1657,27986.4,178.282,186.879,0.510518
1669,28189.2,177.751,186.299,0.671727
1681,28392,177.223,185.721,0.571013
1693,28594.8,176.701,185.148,0.536742
1705,28797.6,176.182,184.579,0.269947
1717,29000.4,175.665,184.014,0.314308
1729,29203.2,175.15,183.454,0.235201
1741,29406,174.639,182.897,0.203702
1753,29608.8,174.132,182.343,0.75493
1765,29811.6,173.63,181.794,0.950828
1777,30014.4,173.132,181.247,0.443314
1789,30217.2,172.64,180.706,0.263262
1801,30420,172.152,180.169,0.601547
1813,30622.8,171.67,179.635,0.962241
1825,30825.6,171.193,179.105,0.624093
1837,31028.4,170.718,178.58,0.196221
1849,31231.2,170.246,178.058,0.505273
1861,31434,169.778,177.541,0.655218
1873,31636.8,169.311,177.027,0.496327
1885,31839.6,168.848,176.516,0.312808
1897,32042.4,168.389,176.01,0.497467
1909,32245.2,167.932,175.507,0.479769
1921,32448,167.479,175.008,0.285896
1933,32650.8,167.029,174.512,0.29641
1945,32853.6,166.582,174.02,-0.263108
1957,33056.4,166.138,173.532,0.318659
1969,33259.2,165.697,173.047,0.358099
1981,33462,165.26,172.565,0.736274
1993,33664.8,164.826,172.086,0.522139
2005,33867.6,164.394,171.611,0.437723
2017,34070.4,163.965,171.14,0.539291
2029,34273.2,163.54,170.672,0.559403
2041,34476,163.117,170.207,0.611866
2053,34678.8,162.697,169.745,0.348767
2065,34881.6,162.281,169.286,0.218872
2077,35084.4,161.867,168.83,0.265104
2089,35287.2,161.458,168.378,0.477929
2101,35490,161.05,167.9289,0.361463
2113,35692.8,160.646,167.484,-0.009811
2125,35895.6,160.244,167.041,0.047997
2137,36098.4,159.842,166.601,0.233072
2149,36301.2,159.443,166.164,0.27017
2161,36504,159.047,165.729,0.13417
2173,36706.8,158.652,165.298,0.45498
2185,36909.6,158.261,164.87,0.825532
2197,37112.4,157.871,164.445,0.792764
2209,37315.2,157.48,164.021,0.335182
2221,37518,157.089,163.6,0.562833
2233,37720.8,156.702,163.182,0.284566
2245,37923.6,156.319,162.765,0.517321
2257,38126.4,155.94,162.352,0.393366
2269,38329.2,155.563,161.941,0.099149
2281,38532,155.189,161.534,0.261729
2293,38734.8,154.818,161.127,0.194756
2305,38937.6,154.447,160.724,0.284887
2317,39140.4,154.08,160.324,0.330695
2329,39343.2,153.712,159.925,0.322075
2341,39546,153.348,159.528,-0.015553
2353,39748.8,152.984,159.135,0.073884
2365,39951.6,152.622,158.744,0.133827
2377,40154.4,152.261,158.354,0.206285
2389,40357.2,151.904,157.968,0.266884
2401,40560,151.549,157.582,0.276595
2413,40762.8,151.196,157.2,0.201363
2425,40965.6,150.847,156.819,0.232452
2437,41168.4,150.502,156.441,0.229731
2449,41371.2,150.159,156.065,0.398026
2461,41574,149.819,155.692,0.307155
2473,41776.8,149.482,155.32,0.486446
2485,41979.6,149.144,154.952,0.245423
2497,42182.4,148.81,154.586,0.456252
2509,42385.2,148.477,154.221,0.756753
2521,42588,148.144,153.859,0.716918
2533,42790.8,147.814,153.5,0.787514
2545,42993.6,147.484,153.142,0.618913
2557,43196.4,147.158,152.786,0.446364
2569,43399.2,146.833,152.433,-0.053241
2581,43602,146.512,152.081,0.080842
2593,43804.8,146.191,151.732,0.333643
2605,44007.6,145.871,151.384,0.495645
2617,44210.4,145.553,151.04,0.545612
2629,44413.2,145.238,150.695,0.49698
2641,44616,144.925,150.354,0.58343
2653,44818.8,144.612,150.015,0.583123
2665,45021.6,144.304,149.678,0.381647
2677,45224.4,143.998,149.342,0.503829
2689,45427.2,143.694,149.01,0.291953
2701,45630,143.393,148.677,0.202115
2713,45832.8,143.091,148.349,0.287665
2725,46035.6,142.79,148.021,0.31293
2737,46238.4,142.492,147.695,0.335538
2749,46441.2,142.195,147.372,0.354729
2761,46644,141.897,147.05,0.310651
2773,46846.8,141.602,146.73,0.260191
2785,47049.6,141.308,146.412,0.131296
2797,47252.4,141.017,146.094,-0.009268
2809,47455.2,140.728,145.781,-0.060206
2821,47658,140.442,145.468,0.037938
2833,47860.8,140.159,145.156,-0.028937
2845,48063.6,139.878,144.847,-0.015373
2857,48266.4,139.6,144.54,0.101714
2869,48469.2,139.323,144.234,0.100352
2881,48672,139.044,143.931,0.201259
2893,48874.8,138.767,143.629,0.106486
2905,49077.6,138.494,143.329,0.016251
2917,49280.4,138.219,143.031,0.170126
2929,49483.2,137.936,142.734,0.302051
2941,49686,137.646,142.438,0.254806
2953,49888.8,137.35,142.142,0.319051
2965,50091.6,137.053,141.846,0.322344
2977,50294.4,136.76,141.549,0.294393
2989,50497.2,136.476,141.255,0.288936
3001,50700,136.2004,140.96,0.250053
3013,50902.8,135.929,140.668,0.262527
3025,51105.6,135.661,140.376,0.174766
3037,51308.4,135.4,140.087,0.202135
3049,51511.2,135.143,139.8,0.365059
3061,51714,134.883,139.514,0.274979
3073,51916.8,134.616,139.23,0.07909
3085,52119.6,134.342,138.946,0.103879
3097,52322.4,134.064,138.663,0.147468
3109,52525.2,133.784,138.381,0.118255
3121,52728,133.506,138.098,0.327384
3133,52930.8,133.235,137.817,0.315594
3145,53133.6,132.973,137.536,0.269233
3157,53336.4,132.722,137.258,0.144119
3169,53539.2,132.479,136.981,0.132262
3181,53742,132.244,136.706,0.134297
3193,53944.8,132.015,136.435,0.156866
3205,54147.6,131.788,136.1659,0.099106
3217,54350.4,131.56,135.899,0.20114
3229,54553.2,131.333,135.634,0.116047
3241,54756,131.108,135.373,0.138979
3253,54958.8,130.882,135.113,0.038704
3265,55161.6,130.661,134.857,0.120524
3277,55364.4,130.44,134.602,0.006114
3289,55567.2,130.218,134.349,0.032745
3301,55770,129.995,134.098,0.068513
3313,55972.8,129.772,133.849,0.220772
3325,56175.6,129.552,133.602,0.201294
3337,56378.4,129.333,133.357,0.081645
3349,56581.2,129.114,133.113,0.090335
3361,56784,128.896,132.871,0.115689
3373,56986.8,128.68,132.631,0.098643
3385,57189.6,128.464,132.391,0.097701
3397,57392.4,128.249,132.153,0.181919
3409,57595.2,128.033,131.917,0.040481
3421,57798,127.82,131.683,-0.039994
3433,58000.8,127.608,131.449,0.062777
3445,58203.6,127.395,131.217,0.057171
3457,58406.4,127.184,130.986,-0.032286
3469,58609.2,126.974,130.757,-0.069547
3481,58812,126.766,130.528,0.036996
3493,59014.8,126.561,130.302,-0.044126
3505,59217.6,126.36,130.077,-0.067094
3517,59420.4,126.16,129.853,-0.124258
3529,59623.2,125.962,129.631,-0.187859
3541,59826,125.764,129.409,-0.13252
3553,60028.8,125.566,129.19,-0.044687
3565,60231.6,125.369,128.972,-0.131214
3577,60434.4,125.174,128.756,-0.232252
3589,60637.2,124.982,128.5409,-0.269424
3601,60840,124.791,128.327,-0.120691
3613,61042.8,124.601,128.115,-0.134638
3625,61245.6,124.411,127.904,-0.162156
3637,61448.4,124.224,127.695,-0.123912
3649,61651.2,124.038,127.486,-0.200777
3661,61854,123.851,127.28,-0.080964
3673,62056.8,123.665,127.075,-0.014158
3685,62259.6,123.48,126.871,-0.181784
3697,62462.4,123.297,126.668,-0.243789
3709,62665.2,123.118,126.466,-0.125387
3721,62868,122.943,126.266,-0.16599
3733,63070.8,122.772,126.067,-0.168146
3745,63273.6,122.602,125.871,-0.247207
3757,63476.4,122.435,125.676,-0.219502
3769,63679.2,122.268,125.483,-0.207989
3781,63882,122.102,125.291,-0.25089
3793,64084.8,121.939,125.102,-0.265793
3805,64287.6,121.779,124.914,-0.239659
3817,64490.4,121.62,124.727,-0.26528
3829,64693.2,121.463,124.543,-0.260507
3841,64896,121.308,124.36,-0.300319
3853,65098.8,121.156,124.179,-0.283985
3865,65301.6,121.002,123.999,-0.249789
3877,65504.4,120.849,123.822,-0.22656
3889,65707.2,120.699,123.646,-0.2648
3901,65910,120.552,123.471,-0.234153
3913,66112.8,120.409,123.298,-0.217643
3925,66315.6,120.27,123.127,-0.222997
3937,66518.4,120.132,122.958,-0.240034
3949,66721.2,119.997,122.793,-0.318385
3961,66924,119.864,122.628,-0.307304
3973,67126.8,119.73,122.465,-0.238498
3985,67329.6,119.599,122.304,-0.346533
3997,67532.4,119.471,122.145,-0.304239
4009,67735.2,119.349,121.988,-0.237503
4021,67938,119.23,121.834,-0.304556
4033,68140.8,119.117,121.682,-0.28074
4045,68343.6,119.009,121.532,-0.326407
4057,68546.4,118.904,121.385,-0.367267
4069,68749.2,118.803,121.241,-0.383728
4081,68952,118.706,121.099,-0.354689
4093,69154.8,118.611,120.96,-0.349815
4105,69357.6,118.518,120.824,-0.350411
4117,69560.4,118.422,120.69,-0.398671
4129,69763.2,118.316,120.559,-0.343207
4141,69966,118.201,120.429,-0.345523
4153,70168.8,118.087,120.299,-0.345814
4165,70371.6,117.981,120.171,-0.335667
4177,70574.4,117.88,120.045,-0.322599
4189,70777.2,117.785,119.92,-0.35422
4201,70980,117.693,119.797,-0.400706
4213,71182.8,117.604,119.676,-0.343153
4225,71385.6,117.514,119.557,-0.349823
4237,71588.4,117.422,119.44,-0.354461
4249,71791.2,117.33,119.325,-0.368429
4261,71994,117.239,119.21,-0.382417
4273,72196.8,117.142,119.097,-0.366063
4285,72399.6,117.042,118.984,-0.3491
4297,72602.4,116.947,118.873,-0.319828
4309,72805.2,116.86,118.764,-0.344636
4321,73008,116.778,118.655,-0.327024
4333,73210.8,116.699,118.548,-0.343371
4345,73413.6,116.623,118.443,-0.367067
4357,73616.4,116.546,118.34,-0.359396
4369,73819.2,116.469,118.238,-0.344081
4381,74022,116.385,118.138,-0.355473
4393,74224.8,116.2853,118.038,-0.343071
4405,74427.6,116.171,117.937,-0.34242
4417,74630.4,116.055,117.836,-0.349421
4429,74833.2,115.952,117.734,-0.356142
4441,75036,115.869,117.633,-0.351666
4453,75238.8,115.792,117.533,-0.358098
4465,75441.6,115.718,117.434,-0.36601
4477,75644.4,115.647,117.337,-0.364181
4489,75847.2,115.573,117.242,-0.366781
4501,76050,115.486,117.147,-0.363761
4513,76252.8,115.387,117.052,-0.371097
4525,76455.6,115.286,116.957,-0.366006
4537,76658.4,115.193,116.863,-0.368018
4549,76861.2,115.113,116.768,-0.360545
4561,77064,115.034,116.675,-0.367598
4573,77266.8,114.945,116.582,-0.368719
4585,77469.6,114.848,116.489,-0.364795
4597,77672.4,114.75,116.396,-0.358784
4609,77875.2,114.663,116.303,-0.357524
4621,78078,114.58,116.21,-0.353286
4633,78280.8,114.488,116.118,-0.34249
4645,78483.6,114.385,116.025,-0.347177
4657,78686.4,114.277,115.932,-0.353363
4669,78889.2,114.174,115.838,-0.34852
4681,79092,114.083,115.743,-0.358002
4693,79294.8,113.998,115.649,-0.357336
4705,79497.6,113.917,115.556,-0.360258
4717,79700.4,113.847,115.4634,-0.353307
4729,79903.2,113.776,115.373,-0.36191
4741,80106,113.703,115.283,-0.363931
4753,80308.8,113.628,115.195,-0.360856
4765,80511.6,113.562,115.107,-0.368573
4777,80714.4,113.5,115.021,-0.366692
4789,80917.2,113.432,114.936,-0.356101
4801,81120,113.353,114.852,-0.346094
4813,81322.8,113.273,114.768,-0.322548
4825,81525.6,113.202,114.684,-0.319428
4837,81728.4,113.139,114.602,-0.319912
4849,81931.2,113.084,114.521,-0.327621
4861,82134,113.035,114.441,-0.341662
4873,82336.8,112.985,114.364,-0.343655
4885,82539.6,112.936,114.288,-0.366759
4897,82742.4,112.893,114.214,-0.368458
4909,82945.2,112.853,114.142,-0.384645
4921,83148,112.815,114.072,-0.396917
4933,83350.8,112.778,114.004,-0.403452
4945,83553.6,112.741,113.938,-0.415733
4957,83756.4,112.704,113.874,-0.405335
4969,83959.2,112.668,113.811,-0.417921
4981,84162,112.631,113.75,-0.414468
4993,84364.8,112.595,113.691,-0.412522
5005,84567.6,112.558,113.632,-0.419055
5017,84770.4,112.518,113.576,-0.415888
5029,84973.2,112.477,113.52,-0.422723
5041,85176,112.436,113.464,-0.419855
5053,85378.8,112.395,113.41,-0.419712
5065,85581.6,112.356,113.357,-0.424423
5077,85784.4,112.318,113.305,-0.416077
5089,85987.2,112.28,113.253,-0.431116
5101,86190,112.244,113.202,-0.424586
5113,86392.8,112.208,113.153,-0.421998
5125,86595.6,112.17,113.104,-0.438873
5137,86798.4,112.133,113.0548,-0.428377
5149,87001.2,112.096,113.007,-0.434913
5161,87204,112.061,112.961,-0.446322
5173,87406.8,112.028,112.914,-0.429414
5185,87609.6,111.995,112.869,-0.428945
5197,87812.4,111.962,112.824,-0.448888
5209,88015.2,111.933,112.78,-0.433178
5221,88218,111.903,112.737,-0.445508
5233,88420.8,111.875,112.696,-0.449301
5245,88623.6,111.849,112.655,-0.446686
5257,88826.4,111.823,112.614,-0.451697
5269,89029.2,111.796,112.575,-0.458847
5281,89232,111.773,112.536,-0.447676
5293,89434.8,111.748,112.499,-0.456654
5305,89637.6,111.721,112.461,-0.465024
5317,89840.4,111.697,112.425,-0.473398
5329,90043.2,111.673,112.389,-0.46343
5341,90246,111.649,112.355,-0.461711
5353,90448.8,111.624,112.32,-0.472223
5365,90651.6,111.595,112.287,-0.464688
5377,90854.4,111.567,112.253,-0.472756
5389,91057.2,111.543,112.22,-0.464605
5401,91260,111.52,112.188,-0.476346
5413,91462.8,111.498,112.155,-0.48105
5425,91665.6,111.473,112.125,-0.470436
5437,91868.4,111.447,112.094,-0.475137
5449,92071.2,111.42,112.063,-0.478306
5461,92274,111.398,112.032,-0.480558
5473,92476.8,111.377,112.003,-0.487096
5485,92679.6,111.357,111.973,-0.481681
5497,92882.4,111.334,111.945,-0.480553
5509,93085.2,111.31,111.916,-0.476971
5521,93288,111.287,111.888,-0.474
5533,93490.8,111.268,111.86,-0.484527
5545,93693.6,111.25,111.833,-0.492909
5557,93896.4,111.231,111.806,-0.481032
5569,94099.2,111.211,111.78,-0.480816
5581,94302,111.188,111.754,-0.491962
5593,94504.8,111.169,111.728,-0.492976
5605,94707.6,111.152,111.703,-0.497672
5617,94910.4,111.133,111.679,-0.49561
5629,95113.2,111.115,111.654,-0.498156
5641,95316,111.098,111.63,-0.494861
5653,95518.8,111.081,111.606,-0.494639
5665,95721.6,111.063,111.583,-0.502103
5677,95924.4,111.041,111.56,-0.49296
5689,96127.2,111.018,111.537,-0.508727
5701,96330,110.998,111.515,-0.490045
5713,96532.8,110.977,111.491,-0.509205
5725,96735.6,110.956,111.469,-0.502517
5737,96938.4,110.931,111.447,-0.505676
5749,97141.2,110.902,111.424,-0.494986
5761,97344,110.875,111.4,-0.501536
5773,97546.8,110.847,111.377,-0.505008
5785,97749.6,110.82,111.353,-0.497395
5797,97952.4,110.792,111.329,-0.49779
5809,98155.2,110.759,111.305,-0.498186
5821,98358,110.725,111.28,-0.490574
5833,98560.8,110.694,111.255,-0.498674
5845,98763.6,110.663,111.2293,-0.493528
5857,98966.4,110.632,111.203,-0.498247
5869,99169.2,110.598,111.176,-0.486933
5881,99372,110.563,111.15,-0.490421
5893,99574.8,110.53,111.123,-0.500698
5905,99777.6,110.498,111.094,-0.490927
5917,99980.4,110.469,111.067,-0.487011
5929,100183.2,110.443,111.039,-0.492976
5941,100386,110.415,111.012,-0.480417
5953,100588.8,110.389,110.984,-0.498735
5965,100791.6,110.364,110.956,-0.483392
5977,100994.4,110.338,110.929,-0.48565
5989,101197.2,110.313,110.901,-0.494708
6001,101400,110.288,110.874,-0.483989
6013,101602.8,110.261,110.847,-0.495212
6025,101805.6,110.236,110.82,-0.488508
6037,102008.4,110.211,110.793,-0.482419
6049,102211.2,110.185,110.767,-0.492411
6061,102414,110.161,110.74,-0.489103
6073,102616.8,110.136,110.714,-0.49879
6085,102819.6,110.11,110.687,-0.497959
6097,103022.4,110.085,110.66,-0.499605
6109,103225.2,110.059,110.635,-0.502485
6121,103428,110.032,110.609,-0.497935
6133,103630.8,110.006,110.582,-0.494626
6145,103833.6,109.978,110.556,-0.493483
6157,104036.4,109.951,110.529,-0.49513
6169,104239.2,109.922,110.502,-0.493988
6181,104442,109.889,110.475,-0.488813
6193,104644.8,109.858,110.449,-0.485189
6205,104847.6,109.829,110.421,-0.488388
6217,105050.4,109.801,110.394,-0.490036
6229,105253.2,109.772,110.366,-0.500682
6241,105456,109.745,110.339,-0.484649
6253,105658.8,109.713,110.311,-0.490023
6265,105861.6,109.68,110.283,-0.490434
6277,106064.4,109.65,110.255,-0.476567
6289,106267.2,109.698,110.227,-0.499331
6301,106470,110.112,110.212,-0.570196
6313,106672.8,110.689,110.224,-0.665171
6325,106875.6,111.189,110.267,-0.754989
6337,107078.4,111.594,110.334,-0.807055
6349,107281.2,111.944,110.419,-0.838177
6361,107484,112.274,110.52,-0.867923
6373,107686.8,112.604,110.635,-0.907753
6385,107889.6,112.934,110.763,-0.935979
6397,108092.4,113.267,110.903,-0.958813
6409,108295.2,113.608,111.055,-0.997876
6421,108498,113.954,111.218,-1.022589
6433,108700.8,114.294,111.392,-1.043775
6445,108903.6,114.631,111.577,-1.07036
6457,109106.4,114.971,111.771,-1.093119
6469,109309.2,115.311,111.972,-1.115753
6481,109512,115.647,112.183,-1.129677
6493,109714.8,115.985,112.401,-1.151147
6505,109917.6,116.327,112.625,-1.176459
6517,110120.4,116.67,112.857,-1.179997
6529,110323.2,117.005,113.096,-1.207498
6541,110526,117.339,113.34,-1.218472
6553,110728.8,117.677,113.588,-1.238759
6565,110931.6,118.02,113.843,-1.2441
6577,111134.4,118.359,114.104,-1.253003
6589,111337.2,118.695,114.368,-1.26365
6601,111540,119.032,114.636,-1.276933
6613,111742.8,119.371,114.908,-1.279921
6625,111945.6,119.711,115.185,-1.296956
6637,112148.4,120.052,115.464,-1.302531
6649,112351.2,120.392,115.748,-1.302081
6661,112554,120.727,116.034,-1.317105
6673,112756.8,121.065,116.324,-1.321046
6685,112959.6,121.408,116.616,-1.317532
6697,113162.4,121.749,116.911,-1.336223
6709,113365.2,122.082,117.209,-1.332644
6721,113568,122.414,117.509,-1.326409
6733,113770.8,122.75,117.81,-1.336098
6745,113973.6,123.09,118.113,-1.341325
6757,114176.4,123.433,118.419,-1.347102
6769,114379.2,123.775,118.726,-1.342308
6781,114582,124.108,119.035,-1.348912
6793,114784.8,124.437,119.344,-1.355199
6805,114987.6,124.772,119.655,-1.350694
6817,115190.4,125.114,119.966,-1.354334
6829,115393.2,125.459,120.28,-1.354175
6841,115596,125.804,120.595,-1.35921
6853,115798.8,126.147,120.911,-1.36249
6865,116001.6,126.484,121.23,-1.354515
6877,116204.4,126.818,121.549,-1.345421
6889,116407.2,127.156,121.869,-1.35873
6901,116610,127.5,122.19,-1.355091
6913,116812.8,127.838,122.512,-1.353753
6925,117015.6,128.169,122.836,-1.358395
6937,117218.4,128.504,123.16,-1.349369
6949,117421.2,128.845,123.484,-1.359114
6961,117624,129.19,123.81,-1.350965
6973,117826.8,129.525,124.137,-1.340023
6985,118029.6,129.856,124.463,-1.348318
6997,118232.4,130.192,124.789,-1.344189
7009,118435.2,130.531,125.116,-1.33503
7021,118638,130.87,125.444,-1.342442
7033,118840.8,131.212,125.772,-1.347309
7045,119043.6,131.549,126.1,-1.342943
7057,119246.4,131.879,126.428,-1.339435
7069,119449.2,132.211,126.757,-1.327879
7081,119652,132.55,127.085,-1.328314
7093,119854.8,132.894,127.414,-1.322098
7105,120057.6,133.239,127.743,-1.325308
7117,120260.4,133.583,128.073,-1.319672
7129,120463.2,133.921,128.404,-1.318188
7141,120666,134.253,128.735,-1.321937
7153,120868.8,134.586,129.065,-1.315803
7165,121071.6,134.924,129.397,-1.307501
7177,121274.4,135.269,129.727,-1.313177
7189,121477.2,135.617,130.06,-1.311184
7201,121680,135.959,130.394,-1.301299
7213,121882.8,136.292,130.728,-1.306402
7225,122085.6,136.623,131.062,-1.299015
7237,122288.4,136.958,131.395,-1.287606
7249,122491.2,137.297,131.729,-1.302442
7261,122694,137.632,132.063,-1.294311
7273,122896.8,137.966,132.397,-1.282178
7285,123099.6,138.304,132.731,-1.279495
7297,123302.4,138.647,133.064,-1.280856
7309,123505.2,138.993,133.399,-1.287286
7321,123708,139.328,133.733,-1.28702
7333,123910.8,139.66,134.067,-1.278767
7345,124113.6,139.995,134.402,-1.264691
7357,124316.4,140.336,134.736,-1.264755
7369,124519.2,140.677,135.07,-1.269328
7381,124722,141.01,135.405,-1.275468
7393,124924.8,141.345,135.74,-1.257026
7405,125127.6,141.684,136.073,-1.253957
7417,125330.4,142.028,136.408,-1.264586
7429,125533.2,142.373,136.743,-1.264142
7441,125736,142.711,137.079,-1.250321
7453,125938.8,143.045,137.414,-1.247291
7465,126141.6,143.38,137.75,-1.246889
7477,126344.4,143.716,138.084,-1.235802
7489,126547.2,144.054,138.419,-1.236995
7501,126750,144.393,138.756,-1.243898
7513,126952.8,144.724,139.091,-1.238852
7525,127155.6,145.056,139.425,-1.224515
7537,127358.4,145.396,139.759,-1.226774
7549,127561.2,145.74,140.093,-1.225164
7561,127764,146.082,140.427,-1.230513
7573,127966.8,146.425,140.763,-1.233274
7585,128169.6,146.764,141.097,-1.232179
7597,128372.4,147.098,141.433,-1.228522
7609,128575.2,147.429,141.769,-1.215411
7621,128778,147.766,142.104,-1.216918
7633,128980.8,148.107,142.439,-1.215362
7645,129183.6,148.451,142.774,-1.213304
7657,129386.4,148.795,143.11,-1.213033
7669,129589.2,149.134,143.446,-1.211245
7681,129792,149.469,143.784,-1.202617
7693,129994.8,149.803,144.121,-1.19706
7705,130197.6,150.143,144.457,-1.1938
7717,130400.4,150.487,144.795,-1.194328
7729,130603.2,150.82,145.132,-1.19612
7741,130806,151.151,145.47,-1.189365
7753,131008.8,151.486,145.807,-1.189412
7765,131211.6,151.821,146.144,-1.187214
7777,131414.4,152.155,146.48,-1.174277
7789,131617.2,152.493,146.815,-1.16763
7801,131820,152.835,147.151,-1.165991
7813,132022.8,153.18,147.488,-1.162614
7825,132225.6,153.524,147.824,-1.173411
7837,132428.4,153.865,148.162,-1.160608
7849,132631.2,154.204,148.5,-1.154044
7861,132834,154.5409,148.838,-1.155164
7873,133036.8,154.878,149.176,-1.153077
7885,133239.6,155.215,149.514,-1.146067
7897,133442.4,155.552,149.853,-1.147696
7909,133645.2,155.892,150.192,-1.145142
7921,133848,156.225,150.53,-1.124952
7933,134050.8,156.554,150.868,-1.109965
7945,134253.6,156.887,151.206,-1.109946
7957,134456.4,157.227,151.543,-1.112377
7969,134659.2,157.571,151.879,-1.102862
7981,134862,157.915,152.217,-1.115274
7993,135064.8,158.256,152.555,-1.101167
8005,135267.6,158.591,152.893,-1.091475
8017,135470.4,158.925,153.231,-1.099497
8029,135673.2,159.261,153.5679,-1.104841
8041,135876,159.598,153.906,-1.093748
8053,136078.8,159.937,154.243,-1.084865
8065,136281.6,160.276,154.58,-1.088049
8077,136484.4,160.612,154.917,-1.082334
8089,136687.2,160.948,155.254,-1.063436
8101,136890,161.289,155.591,-1.064013
8113,137092.8,161.632,155.929,-1.054298
8125,137295.6,161.977,156.266,-1.057759
8137,137498.4,162.32,156.604,-1.063356
8149,137701.2,162.659,156.944,-1.06679
8161,137904,162.989,157.284,-1.069979
8173,138106.8,163.319,157.622,-1.054871
8185,138309.6,163.656,157.96,-1.031986
8197,138512.4,163.997,158.299,-1.030726
8209,138715.2,164.338,158.637,-1.027105
8221,138918,164.675,158.976,-1.045466
8233,139120.8,165.01,159.314,-1.017074
8245,139323.6,165.347,159.652,-0.986649
8257,139526.4,165.682,159.991,-0.999823
8269,139729.2,166.02,160.33,-0.991824
8281,139932,166.359,160.668,-0.975411
8293,140134.8,166.698,161.005,-0.99371
8305,140337.6,167.037,161.344,-0.944136
8317,140540.4,167.379,161.682,-0.960329
8329,140743.2,167.723,162.021,-0.957352
8341,140946,168.065,162.36,-0.927605
8353,141148.8,168.403,162.7,-0.901195
8365,141351.6,168.733,163.039,-0.935479
8377,141554.4,169.063,163.379,-0.936503
8389,141757.2,169.401,163.717,-0.943091
8401,141960,169.742,164.056,-0.932316
8413,142162.8,170.084,164.395,-0.891778
8425,142365.6,170.425,164.734,-0.922164
8437,142568.4,170.762,165.074,-0.918377
8449,142771.2,171.093,165.413,-0.914835
8461,142974,171.428,165.751,-0.88282
8473,143176.8,171.769,166.09,-0.872917
8485,143379.6,172.111,166.429,-0.864878
8497,143582.4,172.452,166.768,-0.840844
8509,143785.2,172.79,167.108,-0.815272
8521,143988,173.126,167.447,-0.791145
8533,144190.8,173.458,167.786,-0.78691
8545,144393.6,173.793,168.125,-0.800895
8557,144596.4,174.134,168.464,-0.764843
8569,144799.2,174.476,168.802,-0.785411
8581,145002,174.817,169.141,-0.803656
8593,145204.8,175.1575,169.481,-0.794687
8605,145407.6,175.494,169.821,-0.779862
8617,145610.4,175.832,170.16,-0.707497
8629,145813.2,176.171,170.5,-0.749886
8641,146016,176.511,170.84,-0.716939
8653,146218.8,176.845,171.181,-0.750213
8665,146421.6,177.178,171.521,-0.694887
8677,146624.4,177.514,171.86,-0.642848
8689,146827.2,177.855,172.2,-0.665338
8701,147030,178.198,172.54,-0.613246
8713,147232.8,178.537,172.881,-0.661425
8725,147435.6,178.869,173.221,-0.624205
8737,147638.4,179.202,173.561,-0.615623
8749,147841.2,179.54,173.899,-0.599493
8761,148044,179.882,174.238,-0.574062
8773,148246.8,180.224,174.577,-0.609563
8785,148449.6,180.565,174.918,-0.590839
8797,148652.4,180.901,175.257,-0.626235
8809,148855.2,181.233,175.597,-0.639632
8821,149058,181.573,175.937,-0.523682
8833,149260.8,181.914,176.277,-0.524591
8845,149463.6,182.257,176.616,-0.632451
8857,149666.4,182.596,176.957,-0.618029
8869,149869.2,182.934,177.2983,-0.579224
8881,150072,183.269,177.639,-0.481191
8893,150274.8,183.601,177.979,-0.47403
8905,150477.6,183.935,178.32,-0.508098
8917,150680.4,184.276,178.659,-0.552157
8929,150883.2,184.618,178.999,-0.520233
8941,151086,184.955,179.34,-0.551944
8953,151288.8,185.288,179.68,-0.468174
8965,151491.6,185.624,180.019,-0.482008
8977,151694.4,185.964,180.359,-0.496246
8989,151897.2,186.304,180.698,-0.468278
9001,152100,186.64,181.037,-0.530274
9013,152302.8,186.977,181.375,-0.55721
9025,152505.6,187.316,181.715,-0.547902
9037,152708.4,187.657,182.053,-0.440156
9049,152911.2,187.998,182.393,-0.390587
9061,153114,188.337,182.733,-0.498309
9073,153316.8,188.675,183.072,-0.351741
9085,153519.6,189.016,183.412,-0.407135
9097,153722.4,189.355,183.752,-0.457885
9109,153925.2,189.692,184.093,-0.406001
9121,154128,190.03,184.434,-0.375488
9133,154330.8,190.367,184.775,-0.29765
9145,154533.6,190.7,185.116,-0.311455
9157,154736.4,191.037,185.456,-0.295275
9169,154939.2,191.372,185.796,-0.36954
9181,155142,191.712,186.136,-0.351412
9193,155344.8,192.053,186.476,-0.38472
9205,155547.6,192.393,186.816,-0.393884
9217,155750.4,192.728,187.156,-0.404732
9229,155953.2,193.062,187.495,-0.432987
9241,156156,193.399,187.8356,-0.279426
9253,156358.8,193.738,188.174,-0.326636
9265,156561.6,194.079,188.515,-0.378615
9277,156764.4,194.418,188.854,-0.332282
9289,156967.2,194.753,189.193,-0.349686
9301,157170,195.091,189.533,-0.326926
9313,157372.8,195.43,189.872,-0.330798
9325,157575.6,195.771,190.21,-0.306002
9337,157778.4,196.113,190.55,-0.262522
9349,157981.2,196.453,190.891,-0.299888
9361,158184,196.789,191.231,-0.311967
9373,158386.8,197.122,191.571,-0.317307
9385,158589.6,197.457,191.911,-0.212365
9397,158792.4,197.797,192.25,-0.160627
9409,158995.2,198.139,192.591,-0.057741
9421,159198,198.482,192.931,0.013166
9433,159400.8,198.823,193.272,-0.087058
9445,159603.6,199.159,193.614,-0.123049
9457,159806.4,199.495,193.955,-0.027501
9469,160009.2,199.828,194.296,-0.089288
9481,160212,200.162,194.637,-0.160304
9493,160414.8,200.498,194.978,-0.067712
9505,160617.6,200.839,195.318,0.047102
9517,160820.4,201.178,195.658,-0.068819
9529,161023.2,201.517,195.998,-0.03686
9541,161226,201.853,196.338,-0.064544
9553,161428.8,202.192,196.678,-0.08494
9565,161631.6,202.532,197.019,-0.160626
9577,161834.4,202.873,197.36,-0.255757
9589,162037.2,203.21,197.701,-0.169168
9601,162240,203.546,198.042,-0.201525
9613,162442.8,203.882,198.382,-0.158553
9625,162645.6,204.22,198.722,-0.160247
9637,162848.4,204.559,199.064,-0.189851
9649,163051.2,204.898,199.403,-0.040189
9661,163254,205.237,199.744,-0.116763
9673,163456.8,205.576,200.084,-0.042772
9685,163659.6,205.911,200.426,-0.016356
9697,163862.4,206.249,200.766,0.033702
9709,164065.2,206.587,201.107,0.044893
9721,164268,206.926,201.448,0.061567
9733,164470.8,207.264,201.788,0.05601
9745,164673.6,207.601,202.128,-0.007122
9757,164876.4,207.939,202.468,-0.020125
9769,165079.2,208.277,202.809,-0.046306
9781,165282,208.615,203.149,0.005884
9793,165484.8,208.954,203.49,0.105412
9805,165687.6,209.292,203.831,0.241817
9817,165890.4,209.629,204.171,0.142851
9829,166093.2,209.967,204.512,0.062667
9841,166296,210.305,204.852,-0.004039
9853,166498.8,210.644,205.192,0.006861
9865,166701.6,210.981,205.532,0.063503
9877,166904.4,211.319,205.873,-0.046727
9889,167107.2,211.656,206.213,0.094175
9901,167310,211.994,206.554,0.05569
9913,167512.8,212.334,206.894,0.033143
9925,167715.6,212.673,207.235,-0.010235
9937,167918.4,213.011,207.576,0.066567
9949,168121.2,213.347,207.916,0.092549
9961,168324,213.682,208.257,0.106877
9973,168526.8,214.021,208.596,0.12198
9985,168729.6,214.358,208.936,0.16223
9997,168932.4,214.696,209.276,0.244727
10009,169135.2,215.035,209.616,0.231748
10021,169338,215.374,209.956,0.135699
10033,169540.8,215.713,210.297,0.158873
10045,169743.6,216.051,210.636,0.254613
10057,169946.4,216.39,210.976,0.098577
10069,170149.2,216.727,211.316,-0.028594
10081,170352,217.067,211.656,0.059719
10093,170554.8,217.404,211.996,0.164531
10105,170757.6,217.742,212.336,0.090712
10117,170960.4,218.079,212.676,0.22995
10129,171163.2,218.416,213.016,0.155213
10141,171366,218.755,213.357,0.275985
10153,171568.8,219.092,213.696,0.242394
10165,171771.6,219.431,214.037,0.146536
10177,171974.4,219.768,214.377,0.150946
10189,172177.2,220.107,214.7171,0.193151
10201,172380,220.445,215.057,0.223286
10213,172582.8,220.784,215.397,0.127767
10225,172785.6,221.121,215.737,-0.002357
10237,172988.4,221.459,216.077,0.114996
10249,173191.2,221.798,216.418,0.130392
10261,173394,222.137,216.759,0.232749
10273,173596.8,222.473,217.099,0.269752
10285,173799.6,222.812,217.438,0.239215
10297,174002.4,223.149,217.778,0.213614
10309,174205.2,223.487,218.119,0.222229
10321,174408,223.824,218.459,0.400196
10333,174610.8,224.161,218.799,0.441987
10345,174813.6,224.497,219.139,0.260265
10357,175016.4,224.837,219.478,0.337531
10369,175219.2,225.18,219.818,0.302641
10381,175422,225.518,220.159,0.243902
10393,175624.8,225.853,220.499,0.402558
10405,175827.6,226.19,220.839,0.384389
10417,176030.4,226.528,221.179,0.307115
10429,176233.2,226.865,221.519,0.31598
10441,176436,227.205,221.858,0.379423
10453,176638.8,227.543,222.198,0.386285
10465,176841.6,227.883,222.538,0.456534
10477,177044.4,228.22,222.879,0.354979
10489,177247.2,228.556,223.219,0.378828
10501,177450,228.893,223.558,0.278263
10513,177652.8,229.23,223.899,0.277472
10525,177855.6,229.57,224.238,0.367756
10537,178058.4,229.909,224.577,0.29225
10549,178261.2,230.248,224.917,0.32625
10561,178464,230.587,225.257,0.507736
10573,178666.8,230.925,225.597,0.495453
10585,178869.6,231.264,225.937,0.4665
10597,179072.4,231.601,226.278,0.38814
10609,179275.2,231.939,226.618,0.343607
10621,179478,232.277,226.958,0.351391
10633,179680.8,232.612,227.299,0.346158
10645,179883.6,232.949,227.639,0.263536
10657,180086.4,233.286,227.978,0.277474
10669,180289.2,233.625,228.318,0.335283
10681,180492,233.964,228.657,0.501891
10693,180694.8,234.303,228.997,0.429879
10705,180897.6,234.642,229.337,0.483645
10717,181100.4,234.98,229.677,0.323465
10729,181303.2,235.317,230.018,0.16751
10741,181506,235.654,230.357,0.365751
10753,181708.8,235.991,230.698,0.44827
10765,181911.6,236.328,231.036,0.481724
10777,182114.4,236.668,231.376,0.423745
10789,182317.2,237.008,231.716,0.458306
10801,182520,237.347,232.056,0.413112
10813,182722.8,237.682,232.395,0.376497
10825,182925.6,238.019,232.736,0.404214
10837,183128.4,238.358,233.074,0.424149
10849,183331.2,238.696,233.415,0.462368
10861,183534,239.036,233.754,0.600342
10873,183736.8,239.373,234.093,0.521873
10885,183939.6,239.712,234.433,0.470079
10897,184142.4,240.049,234.773,0.482748
10909,184345.2,240.387,235.112,0.406217
10921,184548,240.725,235.453,0.386762
10933,184750.8,241.063,235.793,0.471051
10945,184953.6,241.402,236.133,0.475239
10957,185156.4,241.74,236.472,0.338316
10969,185359.2,242.077,236.812,0.385342
10981,185562,242.414,237.152,0.393329
10993,185764.8,242.753,237.491,0.45243
11005,185967.6,243.09,237.831,0.539336
11017,186170.4,243.428,238.17,0.581245
11029,186373.2,243.764,238.51,0.849799
11041,186576,244.104,238.85,0.629412
11053,186778.8,244.442,239.189,0.46811
11065,186981.6,244.779,239.529,0.336864
11077,187184.4,245.117,239.868,0.283892
11089,187387.2,245.458,240.208,0.405723
11101,187590,245.797,240.548,0.332857
11113,187792.8,246.134,240.888,0.432919
11125,187995.6,246.471,241.227,0.41721
11137,188198.4,246.808,241.568,0.501668
11149,188401.2,247.144,241.907,0.445272
11161,188604,247.484,242.247,0.433112
11173,188806.8,247.822,242.587,0.304878
11185,189009.6,248.161,242.926,0.346942
11197,189212.4,248.498,243.265,0.392657
11209,189415.2,248.838,243.604,0.37094
11221,189618,249.175,243.945,0.333341
11233,189820.8,249.513,244.285,0.31631
11245,190023.6,249.852,244.624,0.261796
11257,190226.4,250.189,244.964,0.251664
11269,190429.2,250.528,245.304,0.30539
11281,190632,250.864,245.643,0.348171
11293,190834.8,251.203,245.982,0.378
11305,191037.6,251.54,246.322,0.430078
11317,191240.4,251.879,246.661,0.535109
11329,191443.2,252.216,247.001,0.46267
11341,191646,252.555,247.34,0.486293
11353,191848.8,252.892,247.68,0.47369
11365,192051.6,253.232,248.019,0.484057
11377,192254.4,253.569,248.359,0.403017
11389,192457.2,253.9054,248.699,0.396908
11401,192660,254.244,249.038,0.379443
11413,192862.8,254.579,249.378,0.30942
11425,193065.6,254.916,249.716,0.45681
11437,193268.4,255.254,250.055,0.392681
11449,193471.2,255.592,250.393,0.524855
11461,193674,255.93,250.731,0.504447
11473,193876.8,256.271,251.07,0.521507
11485,194079.6,256.611,251.409,0.43084
11497,194282.4,256.95,251.748,0.385526
11509,194485.2,257.287,252.087,0.303247
11521,194688,257.623,252.426,0.300887
11533,194890.8,257.96,252.765,0.473933
11545,195093.6,258.302,253.103,0.377002
11557,195296.4,258.643,253.443,0.492136
11569,195499.2,258.979,253.783,0.390214
11581,195702,259.318,254.122,0.341655
11593,195904.8,259.654,254.461,0.340555
11605,196107.6,259.989,254.801,0.335646
11617,196310.4,260.325,255.14,0.418734
11629,196513.2,260.662,255.48,0.525485
11641,196716,260.999,255.818,0.552562
11653,196918.8,261.34,256.157,0.443944
11665,197121.6,261.681,256.495,0.388307
11677,197324.4,262.02,256.835,0.442193
11689,197527.2,262.36,257.173,0.425679
11701,197730,262.6977,257.513,0.426894
11713,197932.8,263.031,257.853,0.393426
11725,198135.6,263.367,258.193,0.43203
11737,198338.4,263.706,258.532,0.46067
11749,198541.2,264.045,258.871,0.391712
11761,198744,264.387,259.209,0.421606
11773,198946.8,264.727,259.549,0.479213
11785,199149.6,265.065,259.888,0.489403
11797,199352.4,265.4,260.229,0.491485
11809,199555.2,265.735,260.568,0.493205
11821,199758,266.073,260.907,0.496904
11833,199960.8,266.409,261.248,0.532042
11845,200163.6,266.747,261.586,0.633594
11857,200366.4,267.087,261.925,0.516774
11869,200569.2,267.427,262.265,0.483856
11881,200772,267.763,262.603,0.412063
11893,200974.8,268.101,262.942,0.436227
11905,201177.6,268.44,263.281,0.444604
11917,201380.4,268.78,263.619,0.485559
11929,201583.2,269.118,263.958,0.582126
11941,201786,269.454,264.298,0.542841
11953,201988.8,269.792,264.636,0.488402
11965,202191.6,270.129,264.976,0.439199
11977,202394.4,270.47,265.315,0.455769
11989,202597.2,270.809,265.654,0.545867
12001,202800,271.149,265.994,0.525436
12013,203002.8,271.486,266.334,0.562804
12025,203205.6,271.821,266.674,0.48428
12037,203408.4,272.157,267.013,0.470148
12049,203611.2,272.495,267.352,0.47544
12061,203814,272.832,267.692,0.435875
12073,204016.8,273.173,268.031,0.407558
12085,204219.6,273.514,268.371,0.434922
12097,204422.4,273.851,268.711,0.465104
12109,204625.2,274.19,269.052,0.440012
12121,204828,274.527,269.39,0.472296
12133,205030.8,274.862,269.731,0.463198
12145,205233.6,275.198,270.07,0.508746
12157,205436.4,275.536,270.41,0.534215
12169,205639.2,275.877,270.749,0.518902
12181,205842,276.214,271.089,0.505374
12193,206044.8,276.552,271.427,0.54905
12205,206247.6,276.888,271.767,0.503491
12217,206450.4,277.226,272.106,0.506266
12229,206653.2,277.567,272.445,0.508333
12241,206856,277.906,272.783,0.521886
12253,207058.8,278.243,273.123,0.512109
12265,207261.6,278.58,273.462,0.505167
12277,207464.4,278.919,273.802,0.486407
12289,207667.2,279.26,274.141,0.494656
12301,207870,279.598,274.481,0.53164
12313,208072.8,279.934,274.821,0.540567
12325,208275.6,280.273,275.161,0.532046
12337,208478.4,280.611,275.5,0.498176
12349,208681.2,280.948,275.84,0.463105
12361,208884,281.286,276.18,0.490347
12373,209086.8,281.623,276.519,0.471843
12385,209289.6,281.963,276.859,0.453531
12397,209492.4,282.303,277.198,0.50675
12409,209695.2,282.638,277.538,0.505126
12421,209898,282.974,277.878,0.517899
12433,210100.8,283.313,278.217,0.497321
12445,210303.6,283.653,278.557,0.470972
12457,210506.4,283.991,278.897,0.46446
12469,210709.2,284.329,279.236,0.470923
12481,210912,284.666,279.576,0.465643
12493,211114.8,285.005,279.916,0.477355
12505,211317.6,285.342,280.256,0.480305
12517,211520.4,285.681,280.596,0.481504
12529,211723.2,286.019,280.935,0.480779
12541,211926,286.357,281.275,0.486349
12553,212128.8,286.693,281.615,0.490517
12565,212331.6,287.031,281.955,0.485774
12577,212534.4,287.369,282.294,0.487846
12589,212737.2,287.707,282.634,0.490789
12601,212940,288.045,282.974,0.500185
12613,213142.8,288.383,283.313,0.502948
12625,213345.6,288.722,283.653,0.499259
12637,213548.4,289.06,283.992,0.500453
12649,213751.2,289.398,284.333,0.508614
12661,213954,289.736,284.672,0.50998
12673,214156.8,290.073,285.012,0.516391
12685,214359.6,290.408,285.35,0.538284
12697,214562.4,290.744,285.69,0.54416
12709,214765.2,291.083,286.028,0.544643
12721,214968,291.422,286.366,0.542869
12733,215170.8,291.762,286.705,0.555166
12745,215373.6,292.096,287.044,0.552695
12757,215576.4,292.431,287.381,0.567064
12769,215779.2,292.771,287.718,0.571361
12781,215982,293.112,288.055,0.571318
12793,216184.8,293.447,288.392,0.575611
12805,216387.6,293.782,288.729,0.589087
12817,216590.4,294.121,289.065,0.586963
12829,216793.2,294.463,289.401,0.600773
12841,216996,294.801,289.737,0.611631
12853,217198.8,295.138,290.073,0.612791
12865,217401.6,295.479,290.41,0.619313
12877,217604.4,295.819,290.746,0.639493
12889,217807.2,296.154,291.083,0.671242
12901,218010,296.484,291.419,0.682232
12913,218212.8,296.822,291.752,0.694081
12925,218415.6,297.166,292.087,0.703849
12937,218618.4,297.509,292.421,0.692035
12949,218821.2,297.845,292.755,0.671774
12961,219024,298.171,293.089,0.659636
12973,219226.8,298.501,293.42,0.664408
12985,219429.6,298.841,293.749,0.666249
12997,219632.4,299.181,294.077,0.660508
13009,219835.2,299.206,294.396,0.661669
13021,220038,299.18,294.689,0.643731
13033,220240.8,299.165,294.959,0.632707
13045,220443.6,299.165,295.209,0.626522
13057,220646.4,299.16,295.439,0.63257
13069,220849.2,299.156,295.652,0.644821
13081,221052,299.16,295.847,0.648133
13093,221254.8,299.164,296.029,0.655753
13105,221457.6,299.159,296.195,0.646358
13117,221660.4,299.157,296.349,0.658293
13129,221863.2,299.159,296.49,0.66095
13141,222066,299.154,296.62,0.669115
13153,222268.8,299.148,296.739,0.685877
13165,222471.6,299.149,296.847,0.687006
13177,222674.4,299.153,296.946,0.690031
13189,222877.2,299.156,297.038,0.687734
13201,223080,299.152,297.123,0.701248
13213,223282.8,299.151,297.201,0.692261
13225,223485.6,299.156,297.272,0.692041
13237,223688.4,299.158,297.339,0.7023
13249,223891.2,299.145,297.398,0.707411
13261,224094,299.141,297.452,0.702736
13273,224296.8,299.143,297.502,0.695489
13285,224499.6,299.151,297.546,0.709883
13297,224702.4,299.152,297.588,0.707621
13309,224905.2,299.148,297.627,0.70914
13321,225108,299.151,297.663,0.71272
13333,225310.8,299.156,297.695,0.710123
13345,225513.6,299.151,297.726,0.715595
13357,225716.4,299.148,297.753,0.714889
13369,225919.2,299.15,297.778,0.717446
13381,226122,299.158,297.801,0.718461
13393,226324.8,299.152,297.823,0.711749
13405,226527.6,299.143,297.843,0.722722
13417,226730.4,299.143,297.859,0.715844
13429,226933.2,299.147,297.874,0.719439
13441,227136,299.151,297.889,0.726123
13453,227338.8,299.147,297.902,0.729547
13465,227541.6,299.147,297.913,0.724217
13477,227744.4,299.151,297.924,0.730217
13489,227947.2,299.154,297.935,0.726261
13501,228150,299.141,297.944,0.726599
13513,228352.8,299.138,297.951,0.731743
13525,228555.6,299.143,297.957,0.741695
13537,228758.4,299.15,297.962,0.7271
13549,228961.2,299.143,297.967,0.720918
13561,229164,299.142,297.971,0.720743
13573,229366.8,299.145,297.974,0.717823
13585,229569.6,299.154,297.978,0.719365
13597,229772.4,299.157,297.983,0.723996
13609,229975.2,299.157,297.988,0.720045
13621,230178,299.157,297.992,0.725363
13633,230380.8,299.141,297.996,0.710256
13645,230583.6,299.131,297.997,0.696867
13657,230786.4,299.133,297.996,0.706651
13669,230989.2,299.143,297.995,0.715062
13681,231192,299.152,297.995,0.718323
13693,231394.8,299.145,297.995,0.702875
13705,231597.6,299.14,297.995,0.695495
13717,231800.4,299.142,297.993,0.699787
13729,232003.2,299.151,297.993,0.712489
13741,232206,299.153,297.992,0.731027
13753,232408.8,299.15,297.992,0.716781
13765,232611.6,299.151,297.993,0.721586
13777,232814.4,299.157,297.993,0.729824
13789,233017.2,299.165,297.996,0.727076
13801,233220,299.161,297.9993,0.728104
13813,233422.8,299.137,298.001,0.702872
13825,233625.6,299.124,297.998,0.693777
13837,233828.4,299.13,297.994,0.708884
13849,234031.2,299.142,297.991,0.712662
13861,234234,299.15,297.988,0.70185
13873,234436.8,299.137,297.986,0.702195
13885,234639.6,299.134,297.982,0.717646
13897,234842.4,299.14,297.978,0.704432
13909,235045.2,299.152,297.975,0.684008
13921,235248,299.161,297.974,0.686412
13933,235450.8,299.162,297.975,0.694135
13945,235653.6,299.142,297.974,0.701002
13957,235856.4,299.124,297.97,0.719027
13969,236059.2,299.125,297.964,0.720405
13981,236262,299.136,297.959,0.706848
13993,236464.8,299.151,297.954,0.696209
14005,236667.6,299.149,297.951,0.687629
14017,236870.4,299.147,297.948,0.681451
14029,237073.2,299.15,297.946,0.679737
14041,237276,299.159,297.944,0.67888
14053,237478.8,299.161,297.943,0.673731
14065,237681.6,299.158,297.944,0.684888
14077,237884.4,299.158,297.945,0.678364
14089,238087.2,299.163,297.946,0.694155
14101,238290,299.168,297.949,0.705825
14113,238492.8,299.156,297.952,0.710114
14125,238695.6,299.142,297.952,0.705823
14137,238898.4,299.142,297.953,0.704106
14149,239101.2,299.15,297.951,0.712861
14161,239304,299.16,297.953,0.728308
14173,239506.8,299.163,297.955,0.73071
14185,239709.6,299.164,297.959,0.725901
14197,239912.4,299.164,297.962,0.733623
14209,240115.2,299.168,297.967,0.723836
14221,240318,299.161,297.972,0.722974
14233,240520.8,299.147,297.976,0.718337
14245,240723.6,299.146,297.979,0.722626
14257,240926.4,299.147,297.981,0.738244
14269,241129.2,299.158,297.983,0.732921
14281,241332,299.16,297.987,0.749225
14293,241534.8,299.16,297.99,0.737036
14305,241737.6,299.158,297.995,0.741667
14317,241940.4,299.157,297.999,0.735828
14329,242143.2,299.151,298.002,0.730848
14341,242346,299.149,298.004,0.724668
14353,242548.8,299.15,298.007,0.731359
14365,242751.6,299.154,298.009,0.729985
14377,242954.4,299.155,298.013,0.722602
14389,243157.2,299.152,298.016,0.729637
14401,243360,299.152,298.019,0.724142
14413,243562.8,299.158,298.021,0.721394
14425,243765.6,299.16,298.025,0.738727
14437,243968.4,299.164,298.03,0.73735
14449,244171.2,299.164,298.035,0.738548
14461,244374,299.157,298.04,0.74644
14473,244576.8,299.152,298.044,0.738885
14485,244779.6,299.153,298.047,0.744546
14497,244982.4,299.155,298.051,0.749178
14509,245185.2,299.163,298.0555,0.745399
14521,245388,299.167,298.06,0.741276
14533,245590.8,299.168,298.067,0.766673
14545,245793.6,299.169,298.073,0.778682
14557,245996.4,299.166,298.08,0.776274
14569,246199.2,299.164,298.088,0.776439
14581,246402,299.162,298.094,0.772316
14593,246604.8,299.161,298.101,0.763557
14605,246807.6,299.154,298.106,0.768531
14617,247010.4,299.152,298.112,0.772302
14629,247213.2,299.154,298.117,0.779335
14641,247416,299.16,298.122,0.782935
14653,247618.8,299.16,298.128,0.782072
14665,247821.6,299.16,298.134,0.781209
14677,248024.4,299.159,298.14,0.774855
14689,248227.2,299.16,298.145,0.787036
14701,248430,299.16,298.151,0.782398
14713,248632.8,299.16,298.156,0.784453
14725,248835.6,299.161,298.163,0.789768
14737,249038.4,299.16,298.169,0.793196
14749,249241.2,299.16,298.174,0.801257
14761,249444,299.162,298.181,0.814123
14773,249646.8,299.162,298.187,0.797987
14785,249849.6,299.162,298.193,0.792319
14797,250052.4,299.16,298.2,0.784591
14809,250255.2,299.158,298.206,0.77532
14821,250458,299.154,298.211,0.770854
14833,250660.8,299.151,298.216,0.771708
14845,250863.6,299.15,298.221,0.768273
14857,251066.4,299.15,298.224,0.76604
14869,251269.2,299.151,298.228,0.793493
14881,251472,299.151,298.231,0.786798
14893,251674.8,299.15,298.235,0.781647
14905,251877.6,299.152,298.238,0.787479
14917,252080.4,299.155,298.242,0.785074
14929,252283.2,299.155,298.244,0.792622
14941,252486,299.155,298.247,0.796396
14953,252688.8,299.158,298.251,0.780434
14954,252705.7,299.158,298.251,0.782321