File: z_unorganized_archive/i_data/0.10Kmin/H2O-NH3_2.5108g.csv
H2O-NH3 0wt%  Specific Heat - Large HF,,,,
Creation Date : 8/9/2022 9:38:15 AM,,,,
User : admin,,,,
,,,,
HeatFlow :,,,,
 Initial Mass : 2510.8 mg,,,,
 Molar Mass : 18 g/mol,,,,
,,,,
Index,Time(s),Furnace Temperature(K),Sample Temperature(K),HeatFlow(mW)
1,0,298.754,298.695,215.11
13,202.8,298.742,298.705,101.92
25,405.6,298.734,298.712,48.2422
37,608.4,298.725,298.716,22.6985
49,811.2,298.703,298.719,10.5472
61,1014,298.658,298.718,4.79642
73,1216.8,298.571,298.713,2.132191
85,1419.6,298.425,298.698,0.9969
97,1622.4,298.204,298.67,0.679599
109,1825.2,297.898,298.621,0.867464
121,2028,297.495,298.549,1.438785
133,2230.8,296.978,298.445,2.355955
145,2433.6,296.31,298.302,3.608896
157,2636.4,295.467,298.109,5.237251
169,2839.2,294.438,297.855,7.333914
181,3042,293.247,297.531,9.956027
193,3244.8,291.929,297.129,13.0914
205,3447.6,290.519,296.649,16.6545
217,3650.4,289.04,296.09,20.5254
229,3853.2,287.523,295.454,24.5833
241,4056,285.986,294.744,28.6982
253,4258.8,284.453,293.97,32.7499
265,4461.6,282.931,293.138,36.597
277,4664.4,281.428,292.26,40.0457
289,4867.2,279.942,291.331,43.185
301,5070,278.478,290.355,46.2006
313,5272.8,277.035,289.338,49.0084
325,5475.6,275.613,288.289,51.532
337,5678.4,274.213,287.212,53.7401
349,5881.2,272.831,286.11,55.6452
361,6084,271.468,284.989,57.2919
373,6286.8,270.121,283.851,58.7122
385,6489.6,268.793,282.699,59.9231
397,6692.4,267.4829,281.535,60.96829
409,6895.2,266.19,280.363,61.8756
421,7098,264.917,279.185,62.625
433,7300.8,263.662,278.001,63.2259
445,7503.6,262.423,276.815,63.7215
457,7706.4,261.203,275.63,64.1113
469,7909.2,260.001,274.444,64.4102
481,8112,258.818,273.26,64.6737
493,8314.8,257.65,272.081,64.9086
505,8517.6,256.497,270.904,65.0218
517,8720.4,255.357,269.734,65.02921
529,8923.2,254.231,268.568,64.97589
541,9126,253.116,267.408,64.8996
553,9328.8,252.011,266.256,64.6959
565,9531.6,250.915,265.11,64.4732
577,9734.4,249.83,263.971,64.20854
589,9937.2,248.754,262.838,64.0918
601,10140,247.687,261.714,63.8552
613,10342.8,246.631,260.596,63.5462
625,10545.6,245.583,259.485,63.1067
637,10748.4,244.544,258.383,62.7078
649,10951.2,243.513,257.306,1498
661,11154,242.498,256.277,1462.85
673,11356.8,241.494,255.225,726.192
685,11559.6,240.501,254.157,328.468
697,11762.4,239.514,253.091,160.561
709,11965.2,238.533,252.03,86.8332
721,12168,237.558,250.977,54.0457
733,12370.8,236.591,249.932,39.1972
745,12573.6,235.629,248.895,32.5869
757,12776.4,234.674,247.865,29.7594
769,12979.2,233.726,246.844,27.919
781,13182,232.786,245.831,27.36791
793,13384.8,231.852,244.826,26.6929
805,13587.6,230.925,243.828,26.1868
817,13790.4,230.004,242.838,26.2117
829,13993.2,229.089,241.854,25.8181
841,14196,228.181,240.879,25.5016
853,14398.8,227.282,239.911,25.358
865,14601.6,226.388,238.95,25.051
877,14804.4,225.502,237.995,24.4044
889,15007.2,224.623,237.049,23.8167
901,15210,223.75,236.109,23.946
913,15412.8,222.883,235.176,23.703
925,15615.6,222.022,234.251,23.5311
937,15818.4,221.167,233.332,23.1701
949,16021.2,220.319,232.419,23.1309
961,16224,219.475,231.514,23.2682
973,16426.8,218.638,230.614,22.7177
985,16629.6,217.807,229.721,22.1582
997,16832.4,216.982,228.834,21.9513
1009,17035.2,216.165,227.955,21.6748
1021,17238,215.355,227.081,21.5464
1033,17440.8,214.55,226.213,21.632
1045,17643.6,213.752,225.352,21.1702
1057,17846.4,212.96,224.497,20.8178
1069,18049.2,212.173,223.649,20.5428
1081,18252,211.392,222.806,20.3507
1093,18454.8,210.618,221.971,20.4218
1105,18657.6,209.849,221.14,20.0422
1117,18860.4,209.085,220.316,19.56
1129,19063.2,208.326,219.497,19.449
1141,19266,207.571,218.685,19.5383
1153,19468.8,206.821,217.878,19.0517
1165,19671.6,206.077,217.077,19.0872
1177,19874.4,205.336,216.282,18.5655
1189,20077.2,204.596,215.491,18.6442
1201,20280,203.86,214.707,18.083
1213,20482.8,203.128,213.927,17.7988
1225,20685.6,202.403,213.15,17.6186
1237,20888.4,201.683,212.379,17.6102
1249,21091.2,200.968,211.613,17.4128
1261,21294,200.26,210.853,17.2407
1273,21496.8,199.557,210.097,16.8717
1285,21699.6,198.861,209.346,16.4961
1297,21902.4,198.173,208.601,16.56607
1309,22105.2,197.49,207.86,16.2899
1321,22308,196.814,207.126,16.0777
1333,22510.8,196.141,206.396,15.9607
1345,22713.6,195.473,205.673,16.1369
1357,22916.4,194.807,204.954,16.1235
1369,23119.2,194.144,204.239,15.8457
1381,23322,193.48,203.53,15.7736
1393,23524.8,192.811,202.824,15.4458
1405,23727.6,192.137,202.122,15.0087
1417,23930.4,191.46,201.422,14.8926
1429,24133.2,190.784,200.725,14.4411
1441,24336,190.105,200.03,14.6084
1453,24538.8,189.42,199.338,14.2566
1465,24741.6,188.735,198.6453,14.3081
1477,24944.4,188.051,197.955,14.23281
1489,25147.2,187.37,197.266,14.3609
1501,25350,186.693,196.58,14.0228
1513,25552.8,186.025,195.895,13.8301
1525,25755.6,185.366,195.213,13.8591
1537,25958.4,184.716,194.533,14.1224
1549,26161.2,184.073,193.857,13.9569
1561,26364,183.44,193.183,13.3191
1573,26566.8,182.815,192.515,13.3677
1585,26769.6,182.194,191.85,13.3956
1597,26972.4,181.577,191.188,13.1554
1609,27175.2,180.965,190.531,13.17
1621,27378,180.356,189.878,12.7203
1633,27580.8,179.753,189.23,12.7923
1645,27783.6,179.155,188.584,12.5701
1657,27986.4,178.563,187.943,12.4623
1669,28189.2,177.975,187.308,12.5469
1681,28392,177.391,186.675,12.3556
1693,28594.8,176.809,186.047,12.1575
1705,28797.6,176.232,185.423,11.9741
1717,29000.4,175.656,184.802,11.98108
1729,29203.2,175.08,184.185,11.7837
1741,29406,174.505,183.572,11.471
1753,29608.8,173.935,182.963,11.1537
1765,29811.6,173.362,182.356,11.22009
1777,30014.4,172.788,181.752,11.3158
1789,30217.2,172.212,181.151,11.2295
1801,30420,171.637,180.553,10.8654
1813,30622.8,171.07,179.957,10.6498
1825,30825.6,170.521,179.364,11.1006
1837,31028.4,169.979,178.775,10.9678
1849,31231.2,169.431,178.189,10.9357
1861,31434,168.879,177.607,11.2038
1873,31636.8,168.339,177.027,10.7501
1885,31839.6,167.816,176.451,10.636
1897,32042.4,167.306,175.88,10.38867
1909,32245.2,166.785,175.312,10.497
1921,32448,166.243,174.748,10.9542
1933,32650.8,165.693,174.1854,10.5745
1945,32853.6,165.153,173.625,10.1154
1957,33056.4,164.633,173.066,10.339
1969,33259.2,164.127,172.511,10.3175
1981,33462,163.609,171.96,10.2331
1993,33664.8,163.069,171.411,10.17903
2005,33867.6,162.526,170.862,10.176
2017,34070.4,161.997,170.315,9.777031
2029,34273.2,161.489,169.77,9.813146
2041,34476,160.986,169.229,9.756221
2053,34678.8,160.468,168.69,10.0957
2065,34881.6,159.941,168.152,9.671402
2077,35084.4,159.426,167.617,9.827914
2089,35287.2,158.93,167.083,9.413796
2101,35490,158.444,166.553,9.422422
2113,35692.8,157.936,166.025,9.395971
2125,35895.6,157.407,165.499,9.462758
2137,36098.4,156.881,164.973,9.160753
2149,36301.2,156.373,164.448,9.433598
2161,36504,155.884,163.925,9.708325
2173,36706.8,155.404,163.405,9.686603
2185,36909.6,154.93,162.889,9.213429
2197,37112.4,154.472,162.376,9.429143
2209,37315.2,154.016,161.867,9.174712
2221,37518,153.534,161.362,9.080509
2233,37720.8,153.028,160.857,8.890596
2245,37923.6,152.521,160.352,9.031273
2257,38126.4,152.031,159.847,9.007862
2269,38329.2,151.568,159.346,9.080499
2281,38532,151.115,158.849,9.059301
2293,38734.8,150.627,158.352,9.000601
2305,38937.6,150.101,157.855,8.947907
2317,39140.4,149.573,157.356,8.87207
2329,39343.2,149.07,156.856,9.037679
2341,39546,148.597,156.358,9.123272
2353,39748.8,148.123,155.862,8.990848
2365,39951.6,147.612,155.367,9.001362
2377,40154.4,147.085,154.869,8.865881
2389,40357.2,146.573,154.371,8.985337
2401,40560,146.091,153.873,8.784597
2413,40762.8,145.635,153.377,8.941693
2425,40965.6,145.157,152.884,8.851008
2437,41168.4,144.645,152.391,8.816145
2449,41371.2,144.134,151.897,8.808786
2461,41574,143.652,151.403,8.718609
2473,41776.8,143.207,150.911,8.363593
2485,41979.6,142.792,150.424,8.25198
2497,42182.4,142.338,149.941,8.165556
2509,42385.2,141.816,149.456,8.267186
2521,42588,141.274,148.969,7.998866
2533,42790.8,140.75,148.479,7.828251
2545,42993.6,140.26,147.988,7.934168
2557,43196.4,139.804,147.5,8.074881
2569,43399.2,139.336,147.014,8.23791
2581,43602,138.852,146.527,8.247548
2593,43804.8,138.38,146.042,8.272767
2605,44007.6,137.939,145.559,8.15165
2617,44210.4,137.538,145.08,7.803326
2629,44413.2,137.149,144.607,7.837203
2641,44616,136.762,144.14,7.739285
2653,44818.8,136.39,143.679,7.541905
2665,45021.6,136.039,143.224,7.455951
2677,45224.4,135.703,142.776,7.547622
2689,45427.2,135.343,142.335,7.230426
2701,45630,134.957,141.898,7.1314
2713,45832.8,134.575,141.464,6.902692
2725,46035.6,134.214,141.034,6.979304
2737,46238.4,133.873,140.61,6.958529
2749,46441.2,133.539,140.192,6.731334
2761,46644,133.204,139.779,6.688394
2773,46846.8,132.864,139.37,6.52804
2785,47049.6,132.505,138.965,6.508946
2797,47252.4,132.139,138.563,6.326802
2809,47455.2,131.786,138.164,6.391809
2821,47658,131.46,137.77,6.310604
2833,47860.8,131.137,137.379,6.205672
2845,48063.6,130.736,136.989,6.370591
2857,48266.4,130.26,136.596,6.15714
2869,48469.2,129.775,136.198,6.171732
2881,48672,129.32,135.796,6.239641
2893,48874.8,128.91,135.391,6.151265
2905,49077.6,128.536,134.987,6.095122
2917,49280.4,128.159,134.585,6.009436
2929,49483.2,127.768,134.186,6.018446
2941,49686,127.389,133.788,5.799454
2953,49888.8,127.035,133.391,5.847904
2965,50091.6,126.707,132.998,5.822982
2977,50294.4,126.378,132.609,5.755369
2989,50497.2,126.044,132.223,5.672013
3001,50700,125.71,131.841,5.540423
3013,50902.8,125.37,131.461,5.355726
3025,51105.6,125.016,131.086,5.441559
3037,51308.4,124.658,130.71,5.472627
3049,51511.2,124.298,130.336,5.466763
3061,51714,123.903,129.96,5.487136
3073,51916.8,123.499,129.583,5.378577
3085,52119.6,123.119,129.205,5.325246
3097,52322.4,122.777,128.829,5.233447
3109,52525.2,122.452,128.456,5.186613
3121,52728,122.13,128.085,5.232494
3133,52930.8,121.823,127.719,5.062769
3145,53133.6,121.503,127.355,5.017525
3157,53336.4,121.092,126.992,4.979044
3169,53539.2,120.616,126.621,5.040273
3181,53742,120.129,126.244,5.116794
3193,53944.8,119.669,125.862,5.160581
3205,54147.6,119.251,125.477,5.133211
3217,54350.4,118.878,125.091,5.288108
3229,54553.2,118.503,124.705,5.189714
3241,54756,118.082,124.319,5.208335
3253,54958.8,117.633,123.93,5.275302
3265,55161.6,117.199,123.537,5.317472
3277,55364.4,116.799,123.143,5.308737
3289,55567.2,116.441,122.75,5.308776
3301,55770,116.118,122.361,5.231579
3313,55972.8,115.802,121.976,5.225187
3325,56175.6,115.47,121.595,5.20692
3337,56378.4,115.138,121.217,5.139821
3349,56581.2,114.826,120.842,5.098294
3361,56784,114.543,120.471,4.975448
3373,56986.8,114.281,120.107,4.831224
3385,57189.6,114,119.749,4.727142
3397,57392.4,113.68,119.394,4.748361
3409,57595.2,113.336,119.04,4.598247
3421,57798,113,118.687,4.572712
3433,58000.8,112.688,118.335,4.543498
3445,58203.6,112.405,117.988,4.525218
3457,58406.4,112.145,117.645,4.410665
3469,58609.2,111.875,117.306,4.429004
3481,58812,111.597,116.971,4.337172
3493,59014.8,111.328,116.641,4.251939
3505,59217.6,111.081,116.315,4.278047
3517,59420.4,110.859,115.994,4.107096
3529,59623.2,110.63,115.68,4.04099
3541,59826,110.348,115.369,3.99248
3553,60028.8,110.043,115.058,3.870576
3565,60231.6,109.745,114.748,3.874118
3577,60434.4,109.469,114.439,3.851422
3589,60637.2,109.22,114.133,3.855459
3601,60840,108.998,113.832,3.789789
3613,61042.8,108.774,113.536,3.68885
3625,61245.6,108.532,113.243,3.680696
3637,61448.4,108.289,112.954,3.633779
3649,61651.2,108.061,112.667,3.566155
3661,61854,107.856,112.385,3.522605
3673,62056.8,107.664,112.108,3.362975
3685,62259.6,107.439,111.836,3.318332
3697,62462.4,107.148,111.563,3.285204
3709,62665.2,106.804,111.287,3.309966
3721,62868,106.448,111.007,3.33462
3733,63070.8,106.065,110.723,3.413335
3745,63273.6,105.653,110.43,3.436778
3757,63476.4,105.221,110.13,3.512117
3769,63679.2,104.803,109.823,3.609178
3781,63882,104.413,109.51,3.672511
3793,64084.8,103.994,109.191,3.75665
3805,64287.6,103.471,108.864,3.916724
3817,64490.4,102.859,108.523,3.977381
3829,64693.2,102.194,108.167,4.15742
3841,64896,101.526,107.793,4.417144
3853,65098.8,100.855,107.401,4.78209
3865,65301.6,100.18,106.992,4.959982
3877,65504.4,99.5194,106.567,5.139045
3889,65707.2,98.8805,106.126,5.413791
3901,65910,98.2577,105.673,5.304042
3913,66112.8,97.6708,105.207,5.47213
3925,66315.6,97.1309,104.736,5.548483
3937,66518.4,96.62789,104.26,5.656893
3949,66721.2,96.1646,103.783,5.515316
3961,66924,95.7337,103.306,5.576097
3973,67126.8,95.3213,102.833,5.534021
3985,67329.6,94.937,102.362,5.517611
3997,67532.4,94.5732,101.897,5.300429
4009,67735.2,94.2324,101.439,5.250614
4021,67938,93.9164,100.988,5.195486
4033,68140.8,93.61022,100.546,5.244156
4045,68343.6,93.3274,100.112,5.2387
4057,68546.4,93.0628,99.6883,5.124841
4069,68749.2,92.8176,99.2739,4.968139
4081,68952,92.5877,98.871,4.730384
4093,69154.8,92.3778,98.4791,4.740849
4105,69357.6,92.1842,98.09902,4.670547
4117,69560.4,92.008,97.731,4.394463
4129,69763.2,91.8483,97.3756,4.283132
4141,69966,91.7051,97.0322,4.153084
4153,70168.8,91.5743,96.7014,4.039487
4165,70371.6,91.4605,96.3838,3.75221
4177,70574.4,91.35668,96.0776,3.577529
4189,70777.2,91.2645,95.7864,3.41577
4201,70980,91.1808,95.5064,3.228006
4213,71182.8,91.10575,95.2397,3.030528
4225,71385.6,91.0396,94.985,2.89861
4237,71588.4,90.9776,94.7416,2.745369
4249,71791.2,90.9226,94.51,2.554102
4261,71994,90.8681,94.2897,2.44459
4273,72196.8,90.819,94.0788,2.245105
4285,72399.6,90.7742,93.8796,2.086542
4297,72602.4,90.7334,93.6899,1.935061
4309,72805.2,90.6961,93.5087,1.848487
4321,73008,90.661,93.3371,1.729702
4333,73210.8,90.6301,93.1744,1.629356
4345,73413.6,90.60314,93.0202,1.490642
4357,73616.4,90.5811,92.8749,1.371135
4369,73819.2,90.5635,92.7376,1.272391
4381,74022,90.549,92.607,1.178351
4393,74224.8,90.5368,92.4845,1.08616
4405,74427.6,90.5265,92.3696,0.984323
4417,74630.4,90.5184,92.2613,0.869594
4429,74833.2,90.5128,92.1591,0.78418
4441,75036,90.50878,92.0637,0.712283
4453,75238.8,90.5076,91.9737,0.625041
4465,75441.6,90.5118,91.8906,0.53617
4477,75644.4,90.5228,91.8131,0.454738
4489,75847.2,90.5409,91.74137,0.369182
4501,76050,90.5671,91.6754,0.287119
4513,76252.8,90.6011,91.6161,0.204579
4525,76455.6,90.643,91.5632,0.129559
4537,76658.4,90.6946,91.5166,0.045384
4549,76861.2,90.7545,91.47663,-0.02833
4561,77064,90.82041,91.4433,-0.127526
4573,77266.8,90.8944,91.41622,-0.212599
4585,77469.6,90.9815,91.3964,-0.304237
4597,77672.4,91.0757,91.3833,-0.384252
4609,77875.2,91.17504,91.3771,-0.472254
4621,78078,91.2742,91.3784,-0.560954
4633,78280.8,91.3749,91.385,-0.648528
4645,78483.6,91.475,91.3978,-0.740409
4657,78686.4,91.5743,91.4164,-0.820594
4669,78889.2,91.6731,91.4396,-0.891627
4681,79092,91.7694,91.4673,-0.958592
4693,79294.8,91.8642,91.4995,-1.014584
4705,79497.6,91.9586,91.5368,-1.064682
4717,79700.4,92.0531,91.5761,-1.119804
4729,79903.2,92.1486,91.61962,-1.173387
4741,80106,92.2457,91.667,-1.222531
4753,80308.8,92.34545,91.7171,-1.271597
4765,80511.6,92.4462,91.7703,-1.314783
4777,80714.4,92.5459,91.82688,-1.360418
4789,80917.2,92.6456,91.88584,-1.399821
4801,81120,92.7418,91.9476,-1.427933
4813,81322.8,92.8326,92.01145,-1.458514
4825,81525.6,92.9187,92.07688,-1.488314
4837,81728.4,93.0025,92.1437,-1.51156
4849,81931.2,93.0859,92.2114,-1.528995
4861,82134,93.1788,92.2809,-1.549986
4873,82336.8,93.2872,92.3514,-1.564451
4885,82539.6,93.4053,92.4264,-1.606549
4897,82742.4,93.5257,92.5031,-1.630575
4909,82945.2,93.6322,92.5821,-1.673943
4921,83148,93.7198,92.66329,-1.696021
4933,83350.8,93.8056,92.7436,-1.717722
4945,83553.6,93.9052,92.8258,-1.730394
4957,83756.4,94.0129,92.9084,-1.734438
4969,83959.2,94.1239,92.9935,-1.762072
4981,84162,94.2424,93.0793,-1.779274
4993,84364.8,94.357,93.1688,-1.800678
5005,84567.6,94.46987,93.2589,-1.832038
5017,84770.4,94.5868,93.3512,-1.844395
5029,84973.2,94.6998,93.4448,-1.874893
5041,85176,94.8105,93.5393,-1.890005
5053,85378.8,94.91387,93.6338,-1.900819
5065,85581.6,95.0114,93.73,-1.914076
5077,85784.4,95.117,93.826,-1.918074
5089,85987.2,95.2254,93.9225,-1.924188
5101,86190,95.3321,94.0196,-1.934892
5113,86392.8,95.437,94.1173,-1.942378
5125,86595.6,95.53855,94.216,-1.9555
5137,86798.4,95.63819,94.3138,-1.955879
5149,87001.2,95.7344,94.4117,-1.957316
5161,87204,95.8285,94.51,-1.958745
5173,87406.8,95.92,94.6074,-1.950311
5185,87609.6,96.00817,94.7041,-1.948249
5197,87812.4,96.0971,94.8004,-1.935985
5209,88015.2,96.1854,94.8961,-1.936069
5221,88218,96.2743,94.9915,-1.92737
5233,88420.8,96.3612,95.0866,-1.925367
5245,88623.6,96.4489,95.181,-1.918466
5257,88826.4,96.53443,95.2743,-1.90318
5269,89029.2,96.6182,95.3667,-1.894591
5281,89232,96.7011,95.4594,-1.883214
5293,89434.8,96.7826,95.5509,-1.885869
5305,89637.6,96.8651,95.6426,-1.875934
5317,89840.4,96.9461,95.7324,-1.858013
5329,90043.2,97.0235,95.8221,-1.851291
5341,90246,97.1081,95.9111,-1.843547
5353,90448.8,97.1945,95.9996,-1.836521
5365,90651.6,97.28,96.088,-1.830203
5377,90854.4,97.3614,96.17594,-1.833297
5389,91057.2,97.43511,96.2635,-1.823879
5401,91260,97.5085,96.34957,-1.817973
5413,91462.8,97.5877,96.4359,-1.802007
5425,91665.6,97.6634,96.5213,-1.793712
5437,91868.4,97.7372,96.60575,-1.791682
5449,92071.2,97.8149,96.6898,-1.778581
5461,92274,97.8928,96.7728,-1.77901
5473,92476.8,97.968,96.8565,-1.767327
5485,92679.6,98.035,96.9383,-1.752582
5497,92882.4,98.09249,97.0196,-1.746843
5509,93085.2,98.1497,97.0986,-1.732176
5521,93288,98.2083,97.1762,-1.707552
5533,93490.8,98.2662,97.2535,-1.696749
5545,93693.6,98.321,97.328,-1.682904
5557,93896.4,98.3684,97.4022,-1.654282
5569,94099.2,98.4137,97.4745,-1.63054
5581,94302,98.4629,97.5443,-1.618895
5593,94504.8,98.5126,97.6128,-1.586326
5605,94707.6,98.5679,97.6818,-1.569927
5617,94910.4,98.6252,97.7486,-1.561125
5629,95113.2,98.6774,97.81452,-1.541371
5641,95316,98.7298,97.8799,-1.531587
5653,95518.8,98.7842,97.9452,-1.526954
5665,95721.6,98.8373,98.0086,-1.509341
5677,95924.4,98.8944,98.0718,-1.505096
5689,96127.2,98.9521,98.1354,-1.496404
5701,96330,99.0035,98.1971,-1.490137
5713,96532.8,99.0569,98.2589,-1.478071
5725,96735.6,99.1121,98.3201,-1.472853
5737,96938.4,99.1666,98.381,-1.464915
5749,97141.2,99.2247,98.4415,-1.458696
5761,97344,99.2815,98.5015,-1.455557
5773,97546.8,99.3314,98.5612,-1.446976
5785,97749.6,99.38204,98.6205,-1.444877
5797,97952.4,99.4334,98.6791,-1.438706
5809,98155.2,99.4849,98.7368,-1.43119
5821,98358,99.5325,98.795,-1.422996
5833,98560.8,99.5686,98.8517,-1.406673
5845,98763.6,99.5968,98.9063,-1.394127
5857,98966.4,99.6292,98.96,-1.373794
5869,99169.2,99.668,99.0116,-1.360292
5881,99372,99.7082,99.0626,-1.335614
5893,99574.8,99.7501,99.1143,-1.327565
5905,99777.6,99.7931,99.1646,-1.318184
5917,99980.4,99.8328,99.2145,-1.314236
5929,100183.2,99.8734,99.2634,-1.304545
5941,100386,99.9678,99.3121,-1.297574
5953,100588.8,100.361,99.3704,-1.374078
5965,100791.6,100.91,99.4513,-1.552341
5977,100994.4,101.393,99.5597,-1.831304
5989,101197.2,101.787,99.6892,-2.137724
6001,101400,102.133,99.8333,-2.390259
6013,101602.8,102.465,99.9892,-2.612974
6025,101805.6,102.8,100.156,-2.802237
6037,102008.4,103.137,100.334,-2.965532
6049,102211.2,103.477,100.521,-3.11137
6061,102414,103.82,100.718,-3.263486
6073,102616.8,104.159,100.923,-3.405857
6085,102819.6,104.492,101.137,-3.521173
6097,103022.4,104.827,101.357,-3.646207
6109,103225.2,105.169,101.585,-3.761597
6121,103428,105.513,101.819,-3.859777
6133,103630.8,105.853,102.06,-3.959024
6145,103833.6,106.19,102.307,-4.051096
6157,104036.4,106.53,102.559,-4.144254
6169,104239.2,106.865,102.817,-4.232908
6181,104442,107.199,103.079,-4.304357
6193,104644.8,107.537,103.345,-4.377634
6205,104847.6,107.88,103.615,-4.441978
6217,105050.4,108.219,103.889,-4.504936
6229,105253.2,108.553,104.167,-4.566526
6241,105456,108.887,104.447,-4.6255
6253,105658.8,109.228,104.732,-4.674361
6265,105861.6,109.574,105.018,-4.727773
6277,106064.4,109.922,105.309,-4.781783
6289,106267.2,110.26,105.603,-4.837674
6301,106470,110.591,105.901,-4.881992
6313,106672.8,110.926,106.198,-4.925767
6325,106875.6,111.265,106.499,-4.964482
6337,107078.4,111.606,106.802,-5.007705
6349,107281.2,111.937,107.106,-5.040223
6361,107484,112.265,107.411,-5.065592
6373,107686.8,112.6,107.717,-5.089864
6385,107889.6,112.943,108.024,-5.115919
6397,108092.4,113.289,108.333,-5.145212
6409,108295.2,113.634,108.645,-5.169309
6421,108498,113.977,108.958,-5.201703
6433,108700.8,114.314,109.272,-5.238603
6445,108903.6,114.643,109.588,-5.269995
6457,109106.4,114.973,109.903,-5.288829
6469,109309.2,115.31,110.22,-5.308491
6481,109512,115.653,110.536,-5.323115
6493,109714.8,115.999,110.854,-5.352174
6505,109917.6,116.344,111.174,-5.382244
6517,110120.4,116.687,111.496,-5.403527
6529,110323.2,117.028,111.819,-5.433917
6541,110526,117.358,112.143,-5.4589
6553,110728.8,117.684,112.466,-5.471323
6565,110931.6,118.017,112.789,-5.483411
6577,111134.4,118.359,113.113,-5.494817
6589,111337.2,118.702,113.437,-5.51286
6601,111540,119.045,113.763,-5.539574
6613,111742.8,119.38,114.088,-5.559827
6625,111945.6,119.714,114.415,-5.579688
6637,112148.4,120.054,114.741,-5.592559
6649,112351.2,120.394,115.068,-5.606869
6661,112554,120.73,115.396,-5.629489
6673,112756.8,121.07,115.724,-5.641002
6685,112959.6,121.416,116.052,-5.650937
6697,113162.4,121.758,116.382,-5.669139
6709,113365.2,122.091,116.712,-5.695274
6721,113568,122.421,117.042,-5.710079
6733,113770.8,122.757,117.372,-5.713611
6745,113973.6,123.093,117.703,-5.72185
6757,114176.4,123.432,118.032,-5.719223
6769,114379.2,123.772,118.363,-5.73186
6781,114582,124.112,118.693,-5.737441
6793,114784.8,124.448,119.023,-5.746827
6805,114987.6,124.786,119.355,-5.75877
6817,115190.4,125.127,119.686,-5.765177
6829,115393.2,125.471,120.018,-5.772108
6841,115596,125.81,120.351,-5.78712
6853,115798.8,126.14,120.6827,-5.804421
6865,116001.6,126.469,121.015,-5.812151
6877,116204.4,126.804,121.346,-5.809277
6889,116407.2,127.147,121.676,-5.805885
6901,116610,127.4923,122.008,-5.812522
6913,116812.8,127.837,122.34,-5.819967
6925,117015.6,128.177,122.673,-5.839648
6937,117218.4,128.51,123.006,-5.849035
6949,117421.2,128.844,123.339,-5.858954
6961,117624,129.18,123.673,-5.864024
6973,117826.8,129.514,124.005,-5.860639
6985,118029.6,129.852,124.337,-5.866644
6997,118232.4,130.194,124.669,-5.880506
7009,118435.2,130.537,125.002,-5.890106
7021,118638,130.88,125.335,-5.889277
7033,118840.8,131.219,125.67,-5.912524
7045,119043.6,131.552,126.004,-5.925076
7057,119246.4,131.883,126.338,-5.932868
7069,119449.2,132.223,126.673,-5.930354
7081,119652,132.566,127.005,-5.943472
7093,119854.8,132.909,127.341,-5.946497
7105,120057.6,133.245,127.676,-5.963097
7117,120260.4,133.58,128.011,-5.972451
7129,120463.2,133.918,128.346,-5.980449
7141,120666,134.259,128.681,-5.991707
7153,120868.8,134.593,129.016,-5.995821
7165,121071.6,134.925,129.352,-5.997184
7177,121274.4,135.261,129.686,-6.003519
7189,121477.2,135.602,130.021,-6.009313
7201,121680,135.945,130.356,-6.010726
7213,121882.8,136.288,130.691,-6.021378
7225,122085.6,136.623,131.026,-6.038005
7237,122288.4,136.953,131.362,-6.043452
7249,122491.2,137.283,131.695,-6.038711
7261,122694,137.62,132.029,-6.039403
7273,122896.8,137.963,132.362,-6.038497
7285,123099.6,138.309,132.697,-6.046182
7297,123302.4,138.65,133.031,-6.059511
7309,123505.2,138.987,133.366,-6.069559
7321,123708,139.321,133.7,-6.078545
7333,123910.8,139.654,134.034,-6.085942
7345,124113.6,139.992,134.367,-6.08828
7357,124316.4,140.329,134.701,-6.091438
7369,124519.2,140.665,135.034,-6.087166
7381,124722,141.002,135.368,-6.094594
7393,124924.8,141.345,135.701,-6.09989
7405,125127.6,141.691,136.035,-6.103065
7417,125330.4,142.036,136.369,-6.116767
7429,125533.2,142.377,136.705,-6.13751
7441,125736,142.708,137.04,-6.144299
7453,125938.8,143.043,137.375,-6.16075
7465,126141.6,143.378,137.71,-6.160478
7477,126344.4,143.713,138.044,-6.167534
7489,126547.2,144.053,138.379,-6.172237
7501,126750,144.391,138.714,-6.179769
7513,126952.8,144.727,139.049,-6.195369
7525,127155.6,145.064,139.384,-6.192798
7537,127358.4,145.405,139.718,-6.198287
7549,127561.2,145.749,140.054,-6.214852
7561,127764,146.094,140.389,-6.222342
7573,127966.8,146.434,140.726,-6.243955
7585,128169.6,146.77,141.064,-6.257511
7597,128372.4,147.099,141.4,-6.261602
7609,128575.2,147.43,141.736,-6.276447
7621,128778,147.765,142.073,-6.272354
7633,128980.8,148.106,142.409,-6.272895
7645,129183.6,148.451,142.744,-6.286972
7657,129386.4,148.795,143.081,-6.287247
7669,129589.2,149.133,143.418,-6.307317
7681,129792,149.463,143.756,-6.316453
7693,129994.8,149.798,144.092,-6.3213
7705,130197.6,150.139,144.43,-6.332197
7717,130400.4,150.482,144.766,-6.337288
7729,130603.2,150.823,145.104,-6.34864
7741,130806,151.16,145.443,-6.362709
7753,131008.8,151.491,145.78,-6.368282
7765,131211.6,151.824,146.118,-6.370317
7777,131414.4,152.163,146.454,-6.372929
7789,131617.2,152.506,146.792,-6.374008
7801,131820,152.847,147.13,-6.386811
7813,132022.8,153.181,147.468,-6.396104
7825,132225.6,153.512,147.805,-6.40144
7837,132428.4,153.845,148.142,-6.407271
7849,132631.2,154.181,148.478,-6.39556
7861,132834,154.526,148.814,-6.402687
7873,133036.8,154.873,149.151,-6.406353
7885,133239.6,155.216,149.488,-6.407769
7897,133442.4,155.553,149.826,-6.423728
7909,133645.2,155.884,150.163,-6.442116
7921,133848,156.216,150.5,-6.437417
7933,134050.8,156.558,150.837,-6.427859
7945,134253.6,156.903,151.1742,-6.441806
7957,134456.4,157.242,151.512,-6.453764
7969,134659.2,157.575,151.849,-6.459386
7981,134862,157.9084,152.188,-6.456699
7993,135064.8,158.247,152.524,-6.461635
8005,135267.6,158.591,152.861,-6.460247
8017,135470.4,158.933,153.199,-6.46928
8029,135673.2,159.268,153.537,-6.490863
8041,135876,159.602,153.874,-6.49143
8053,136078.8,159.939,154.213,-6.478705
8065,136281.6,160.27,154.55,-6.493769
8077,136484.4,160.6,154.887,-6.501841
8089,136687.2,160.938,155.222,-6.49437
8101,136890,161.2834,155.558,-6.491226
8113,137092.8,161.631,155.893,-6.488129
8125,137295.6,161.978,156.23,-6.496716
8137,137498.4,162.318,156.568,-6.503119
8149,137701.2,162.646,156.905,-6.5112
8161,137904,162.974,157.242,-6.512872
8173,138106.8,163.312,157.578,-6.506037
8185,138309.6,163.656,157.914,-6.541236
8197,138512.4,164.001,158.252,-6.53342
8209,138715.2,164.338,158.589,-6.55287
8221,138918,164.672,158.926,-6.552672
8233,139120.8,165.009,159.263,-6.544238
8245,139323.6,165.353,159.599,-6.564842
8257,139526.4,165.695,159.937,-6.581836
8269,139729.2,166.03,160.277,-6.572666
8281,139932,166.365,160.615,-6.573219
8293,140134.8,166.699,160.953,-6.589711
8305,140337.6,167.037,161.291,-6.567828
8317,140540.4,167.381,161.629,-6.605583
8329,140743.2,167.724,161.968,-6.608699
8341,140946,168.059,162.307,-6.617635
8353,141148.8,168.392,162.646,-6.645652
8365,141351.6,168.73,162.985,-6.655495
8377,141554.4,169.071,163.324,-6.636316
8389,141757.2,169.408,163.663,-6.671199
8401,141960,169.741,164.003,-6.652084
8413,142162.8,170.078,164.341,-6.67027
8425,142365.6,170.419,164.679,-6.689118
8437,142568.4,170.761,165.018,-6.633282
8449,142771.2,171.098,165.357,-6.62521
8461,142974,171.433,165.697,-6.668203
8473,143176.8,171.769,166.035,-6.659945
8485,143379.6,172.112,166.374,-6.658805
8497,143582.4,172.455,166.714,-6.675774
8509,143785.2,172.792,167.053,-6.711442
8521,143988,173.126,167.393,-6.714397
8533,144190.8,173.46,167.733,-6.733317
8545,144393.6,173.795,168.072,-6.728091
8557,144596.4,174.133,168.411,-6.730632
8569,144799.2,174.469,168.749,-6.7021
8581,145002,174.808,169.088,-6.712423
8593,145204.8,175.15,169.427,-6.700989
8605,145407.6,175.495,169.765,-6.712913
8617,145610.4,175.835,170.105,-6.714397
8629,145813.2,176.166,170.444,-6.715242
8641,146016,176.493,170.783,-6.745836
8653,146218.8,176.83,171.1201,-6.762687
8665,146421.6,177.174,171.456,-6.775498
8677,146624.4,177.521,171.794,-6.744259
8689,146827.2,177.861,172.133,-6.713097
8701,147030,178.188,172.472,-6.713381
8713,147232.8,178.521,172.81,-6.687991
8725,147435.6,178.863,173.146,-6.709822
8737,147638.4,179.209,173.484,-6.746552
8749,147841.2,179.552,173.822,-6.766033
8761,148044,179.883,174.16,-6.765226
8773,148246.8,180.211,174.498,-6.667586
8785,148449.6,180.548,174.834,-6.707163
8797,148652.4,180.893,175.17,-6.672186
8809,148855.2,181.239,175.508,-6.754834
8821,149058,181.583,175.846,-6.774247
8833,149260.8,181.918,176.185,-6.740186
8845,149463.6,182.255,176.524,-6.669376
8857,149666.4,182.594,176.863,-6.693503
8869,149869.2,182.935,177.204,-6.767504
8881,150072,183.271,177.543,-6.876093
8893,150274.8,183.601,177.883,-6.847442
8905,150477.6,183.936,178.222,-6.881396
8917,150680.4,184.278,178.561,-6.881332
8929,150883.2,184.621,178.902,-6.864633
8941,151086,184.961,179.243,-6.84186
8953,151288.8,185.293,179.583,-6.864361
8965,151491.6,185.628,179.922,-6.823829
8977,151694.4,185.968,180.262,-6.740961
8989,151897.2,186.312,180.602,-6.829431
9001,152100,186.654,180.943,-6.905114
9013,152302.8,186.991,181.284,-6.803793
9025,152505.6,187.324,181.626,-6.85376
9037,152708.4,187.658,181.966,-6.855818
9049,152911.2,187.998,182.307,-6.869127
9061,153114,188.339,182.649,-6.90962
9073,153316.8,188.681,182.99,-6.809609
9085,153519.6,189.02,183.332,-6.839103
9097,153722.4,189.355,183.675,-6.895879
9109,153925.2,189.69,184.016,-6.902039
9121,154128,190.03,184.358,-6.874703
9133,154330.8,190.37,184.701,-6.928498
9145,154533.6,190.71,185.044,-6.984965
9157,154736.4,191.047,185.387,-6.945238
9169,154939.2,191.385,185.73,-6.927208
9181,155142,191.72,186.073,-7.001273
9193,155344.8,192.055,186.415,-7.015267
9205,155547.6,192.391,186.758,-6.973207
9217,155750.4,192.726,187.1,-6.958508
9229,155953.2,193.063,187.442,-6.980421
9241,156156,193.402,187.784,-6.910999
9253,156358.8,193.739,188.125,-6.858936
9265,156561.6,194.08,188.467,-7.011478
9277,156764.4,194.416,188.808,-6.976823
9289,156967.2,194.753,189.149,-6.947103
9301,157170,195.093,189.49,-7.028375
9313,157372.8,195.434,189.831,-6.984148
9325,157575.6,195.775,190.173,-6.910945
9337,157778.4,196.114,190.513,-6.956476
9349,157981.2,196.45,190.855,-6.795972
9361,158184,196.787,191.196,-6.855826
9373,158386.8,197.127,191.538,-6.858048
9385,158589.6,197.47,191.88,-7.049399
9397,158792.4,197.811,192.223,-6.967016
9409,158995.2,198.146,192.565,-6.925217
9421,159198,198.481,192.909,-6.836892
9433,159400.8,198.814,193.251,-6.819157
9445,159603.6,199.146,193.593,-6.785416
9457,159806.4,199.482,193.934,-6.745318
9469,160009.2,199.822,194.275,-6.710313
9481,160212,200.165,194.616,-6.769604
9493,160414.8,200.507,194.956,-6.855577
9505,160617.6,200.846,195.298,-6.690292
9517,160820.4,201.182,195.64,-6.799819
9529,161023.2,201.516,195.982,-6.87019
9541,161226,201.85,196.321,-6.993252
9553,161428.8,202.186,196.662,-6.84779
9565,161631.6,202.526,197.001,-6.851949
9577,161834.4,202.864,197.342,-6.940028
9589,162037.2,203.202,197.682,-7.055176
9601,162240,203.543,198.022,-6.962184
9613,162442.8,203.884,198.361,-6.943856
9625,162645.6,204.221,198.702,-7.004234
9637,162848.4,204.557,199.042,-6.898893
9649,163051.2,204.896,199.382,-6.793982
9661,163254,205.235,199.722,-6.92589
9673,163456.8,205.579,200.062,-6.941107
9685,163659.6,205.92,200.403,-7.054422
9697,163862.4,206.257,200.745,-7.054172
9709,164065.2,206.591,201.087,-7.060463
9721,164268,206.922,201.427,-7.013976
9733,164470.8,207.257,201.768,-7.092653
9745,164673.6,207.596,202.107,-6.859482
9757,164876.4,207.938,202.447,-6.794048
9769,165079.2,208.2825,202.788,-6.79152
9781,165282,208.623,203.128,-6.813564
9793,165484.8,208.958,203.469,-6.905715
9805,165687.6,209.289,203.811,-6.936527
9817,165890.4,209.623,204.151,-6.979055
9829,166093.2,209.961,204.491,-6.912974
9841,166296,210.302,204.83,-6.89673
9853,166498.8,210.644,205.17,-6.884745
9865,166701.6,210.985,205.51,-6.846598
9877,166904.4,211.32,205.851,-6.915069
9889,167107.2,211.654,206.191,-6.888459
9901,167310,211.992,206.531,-6.983152
9913,167512.8,212.333,206.87,-7.012414
9925,167715.6,212.674,207.211,-6.952698
9937,167918.4,213.011,207.551,-6.824147
9949,168121.2,213.348,207.891,-6.95267
9961,168324,213.686,208.232,-7.04053
9973,168526.8,214.025,208.573,-7.173456
9985,168729.6,214.364,208.913,-7.18169
9997,168932.4,214.698,209.254,-7.051971
10009,169135.2,215.034,209.595,-6.981534
10021,169338,215.373,209.934,-6.981802
10033,169540.8,215.713,210.274,-7.023688
10045,169743.6,216.052,210.615,-6.847864
10057,169946.4,216.39,210.955,-6.917449
10069,170149.2,216.728,211.296,-7.17656
10081,170352,217.065,211.636,-7.32275
10093,170554.8,217.405,211.977,-7.195512
10105,170757.6,217.744,212.318,-7.212317
10117,170960.4,218.08,212.658,-7.053586
10129,171163.2,218.416,212.998,-6.932103
10141,171366,218.753,213.339,-6.981339
10153,171568.8,219.093,213.679,-7.020046
10165,171771.6,219.432,214.019,-7.029508
10177,171974.4,219.77,214.36,-7.028325
10189,172177.2,220.106,214.7,-7.158897
10201,172380,220.444,215.04,-7.103159
10213,172582.8,220.782,215.38,-7.078181
10225,172785.6,221.121,215.72,-7.280514
10237,172988.4,221.461,216.06,-7.312375
10249,173191.2,221.797,216.401,-7.269671
10261,173394,222.135,216.741,-7.363635
10273,173596.8,222.474,217.082,-7.21313
10285,173799.6,222.812,217.422,-7.345535
10297,174002.4,223.15,217.763,-7.32569
10309,174205.2,223.487,218.102,-7.089724
10321,174408,223.825,218.442,-7.085368
10333,174610.8,224.164,218.783,-7.219257
10345,174813.6,224.502,219.123,-7.065995
10357,175016.4,224.839,219.464,-7.134124
10369,175219.2,225.175,219.8035,-7.15451
10381,175422,225.513,220.144,-7.084501
10393,175624.8,225.852,220.483,-7.151727
10405,175827.6,226.191,220.824,-7.433271
10417,176030.4,226.529,221.164,-7.493159
10429,176233.2,226.866,221.504,-7.500851
10441,176436,227.204,221.844,-7.513012
10453,176638.8,227.544,222.184,-7.509107
10465,176841.6,227.882,222.524,-7.533818
10477,177044.4,228.219,222.865,-7.460968
10489,177247.2,228.555,223.205,-7.225568
10501,177450,228.894,223.544,-7.037215
10513,177652.8,229.233,223.884,-7.067488
10525,177855.6,229.572,224.224,-7.105623
10537,178058.4,229.909,224.564,-7.375936
10549,178261.2,230.245,224.904,-7.45994
10561,178464,230.584,225.244,-7.507344
10573,178666.8,230.923,225.584,-7.418576
10585,178869.6,231.261,225.923,-7.485723
10597,179072.4,231.598,226.264,-7.262186
10609,179275.2,231.934,226.603,-7.354466
10621,179478,232.274,226.943,-7.482036
10633,179680.8,232.613,227.283,-7.291952
10645,179883.6,232.952,227.622,-7.169619
10657,180086.4,233.288,227.963,-7.397909
10669,180289.2,233.625,228.302,-7.451274
10681,180492,233.965,228.642,-7.287571
10693,180694.8,234.304,228.982,-7.2939
10705,180897.6,234.641,229.321,-7.400772
10717,181100.4,234.978,229.662,-7.523475
10729,181303.2,235.316,230.001,-7.492028
10741,181506,235.654,230.341,-7.577674
10753,181708.8,235.993,230.68,-7.495744
10765,181911.6,236.33,231.02,-7.512035
10777,182114.4,236.669,231.359,-7.525481
10789,182317.2,237.006,231.699,-7.656011
10801,182520,237.346,232.038,-7.626768
10813,182722.8,237.683,232.378,-7.651106
10825,182925.6,238.02,232.718,-7.581466
10837,183128.4,238.36,233.058,-7.645891
10849,183331.2,238.699,233.398,-7.601115
10861,183534,239.037,233.737,-7.546608
10873,183736.8,239.374,234.077,-7.526505
10885,183939.6,239.711,234.417,-7.68015
10897,184142.4,240.047,234.757,-7.670555
10909,184345.2,240.385,235.096,-7.695048
10921,184548,240.726,235.436,-7.713673
10933,184750.8,241.064,235.776,-7.557556
10945,184953.6,241.4,236.116,-7.633742
10957,185156.4,241.737,236.456,-7.658432
10969,185359.2,242.073,236.795,-7.787937
10981,185562,242.412,237.135,-7.774663
10993,185764.8,242.751,237.474,-7.551494
11005,185967.6,243.088,237.813,-7.651093
11017,186170.4,243.427,238.152,-7.620232
11029,186373.2,243.768,238.492,-7.646965
11041,186576,244.107,238.832,-7.680587
11053,186778.8,244.442,239.171,-7.763657
11065,186981.6,244.776,239.511,-7.895875
11077,187184.4,245.113,239.85,-7.783555
11089,187387.2,245.451,240.189,-7.795648
11101,187590,245.79,240.527,-7.821534
11113,187792.8,246.13,240.866,-7.80348
11125,187995.6,246.471,241.204,-7.806669
11137,188198.4,246.808,241.543,-7.849996
11149,188401.2,247.147,241.882,-7.841085
11161,188604,247.487,242.222,-7.812353
11173,188806.8,247.829,242.561,-7.784591
11185,189009.6,248.171,242.901,-7.812665
11197,189212.4,248.508,243.242,-7.93201
11209,189415.2,248.844,243.583,-7.949607
11221,189618,249.179,243.9243,-8.024343
11233,189820.8,249.511,244.264,-7.978671
11245,190023.6,249.845,244.604,-8.03302
11257,190226.4,250.182,244.943,-7.792821
11269,190429.2,250.5183,245.283,-7.870693
11281,190632,250.858,245.622,-7.944804
11293,190834.8,251.199,245.96,-7.730955
11305,191037.6,251.542,246.299,-7.808213
11317,191240.4,251.883,246.638,-7.914479
11329,191443.2,252.221,246.978,-7.896437
11341,191646,252.557,247.319,-7.984511
11353,191848.8,252.893,247.658,-7.984487
11365,192051.6,253.23,247.998,-7.895962
11377,192254.4,253.567,248.338,-7.92961
11389,192457.2,253.905,248.677,-7.978453
11401,192660,254.242,249.017,-8.024685
11413,192862.8,254.58,249.356,-8.056956
11425,193065.6,254.919,249.695,-8.102025
11437,193268.4,255.26,250.034,-8.11192
11449,193471.2,255.601,250.374,-8.009522
11461,193674,255.939,250.714,-7.989315
11473,193876.8,256.275,251.054,-8.067967
11485,194079.6,256.609,251.393,-8.090146
11497,194282.4,256.946,251.734,-8.173595
11509,194485.2,257.282,252.072,-8.177855
11521,194688,257.621,252.412,-8.151675
11533,194890.8,257.96,252.75,-8.076555
11545,195093.6,258.2985,253.089,-8.020272
11557,195296.4,258.637,253.428,-8.070694
11569,195499.2,258.973,253.767,-8.081784
11581,195702,259.312,254.105,-8.150865
11593,195904.8,259.651,254.444,-8.131607
11605,196107.6,259.993,254.784,-8.169176
11617,196310.4,260.333,255.124,-8.196201
11629,196513.2,260.671,255.463,-8.152503
11641,196716,261.007,255.803,-8.175183
11653,196918.8,261.342,256.142,-8.177573
11665,197121.6,261.678,256.481,-8.097971
11677,197324.4,262.016,256.82,-8.174975
11689,197527.2,262.354,257.159,-8.196219
11701,197730,262.694,257.498,-8.296431
11713,197932.8,263.035,257.838,-8.32681
11725,198135.6,263.375,258.177,-8.292001
11737,198338.4,263.712,258.518,-8.253446
11749,198541.2,264.047,258.857,-8.227215
11761,198744,264.384,259.197,-8.287905
11773,198946.8,264.722,259.537,-8.364402
11785,199149.6,265.059,259.876,-8.299664
11797,199352.4,265.397,260.214,-8.323749
11809,199555.2,265.736,260.554,-8.350319
11821,199758,266.074,260.893,-8.362686
11833,199960.8,266.412,261.233,-8.36911
11845,200163.6,266.75,261.573,-8.344833
11857,200366.4,267.09,261.911,-8.387745
11869,200569.2,267.428,262.252,-8.407093
11881,200772,267.766,262.591,-8.441168
11893,200974.8,268.103,262.931,-8.483089
11905,201177.6,268.44,263.27,-8.4322
11917,201380.4,268.777,263.609,-8.435097
11929,201583.2,269.117,263.948,-8.458218
11941,201786,269.455,264.288,-8.498136
11953,201988.8,269.795,264.628,-8.532486
11965,202191.6,270.135,264.967,-8.530368
11977,202394.4,270.474,265.307,-8.56345
11989,202597.2,270.809,265.646,-8.567773
12001,202800,271.148,265.986,-8.589946
12013,203002.8,271.486,266.326,-8.610682
12025,203205.6,271.823,266.666,-8.625346
12037,203408.4,272.159,267.006,-8.659256
12049,203611.2,272.498,267.346,-8.663586
12061,203814,272.837,267.686,-8.701201
12073,204016.8,273.174,268.027,-8.721896
12085,204219.6,273.511,268.367,-8.716272
12097,204422.4,273.851,268.707,-8.732528
12109,204625.2,274.188,269.047,-8.76175
12121,204828,274.523,269.386,-8.768777
12133,205030.8,274.86,269.726,-8.75042
12145,205233.6,275.201,270.064,-8.776284
12157,205436.4,275.541,270.404,-8.751589
12169,205639.2,275.879,270.744,-8.77992
12181,205842,276.215,271.084,-8.819221
12193,206044.8,276.553,271.423,-8.855668
12205,206247.6,276.891,271.763,-8.882361
12217,206450.4,277.231,272.102,-8.894548
12229,206653.2,277.568,272.442,-8.941556
12241,206856,277.906,272.782,-9.006741
12253,207058.8,278.244,273.121,-9.21674
12265,207261.6,278.582,273.461,-10.1583
12277,207464.4,278.917,273.801,-25.2394
12289,207667.2,279.255,274.139,-71.8706
12301,207870,279.593,274.476,-110.547
12313,208072.8,279.934,274.811,-153.315
12325,208275.6,280.272,275.146,-194.935
12337,208478.4,280.611,275.479,-234.56
12349,208681.2,280.948,275.812,-272.154
12361,208884,281.286,276.144,-308.305
12373,209086.8,281.62,276.475,-337.496
12385,209289.6,281.954,276.805,-359.792
12397,209492.4,282.292,277.136,-381.442
12409,209695.2,282.633,277.466,-388.394
12421,209898,282.974,277.797,-374.994
12433,210100.8,283.314,278.13,-364.371
12445,210303.6,283.652,278.464,-336.29
12457,210506.4,283.987,278.8,-289.682
12469,210709.2,284.323,279.138,-169.199
12481,210912,284.661,279.479,-91.2504
12493,211114.8,284.998,279.822,-53.4214
12505,211317.6,285.335,280.166,-35.07422
12517,211520.4,285.675,280.509,-26.1802
12529,211723.2,286.017,280.852,-21.8827
12541,211926,286.358,281.194,-19.8005
12553,212128.8,286.698,281.538,-18.78733
12565,212331.6,287.035,281.881,-18.30559
12577,212534.4,287.373,282.224,-18.0817
12589,212737.2,287.711,282.567,-17.9582
12601,212940,288.048,282.91,-17.9103
12613,213142.8,288.386,283.253,-17.8606
12625,213345.6,288.722,283.596,-17.8251
12637,213548.4,289.058,283.937,-17.8178
12649,213751.2,289.397,284.28,-17.7967
12661,213954,289.733,284.621,-17.7704
12673,214156.8,290.069,284.961,-17.7491
12685,214359.6,290.407,285.302,-17.725
12697,214562.4,290.743,285.642,-17.7017
12709,214765.2,291.074,285.9802,-17.6635
12721,214968,291.411,286.318,-17.6195
12733,215170.8,291.754,286.655,-17.569
12745,215373.6,292.097,286.993,-17.52
12757,215576.4,292.435,287.33,-17.50988
12769,215779.2,292.773,287.668,-17.4699
12781,215982,293.114,288.005,-17.4506
12793,216184.8,293.454,288.343,-17.448
12805,216387.6,293.79,288.681,-17.4432
12817,216590.4,294.127,289.019,-17.4266
12829,216793.2,294.467,289.356,-17.4311
12841,216996,294.808,289.695,-17.4135
12853,217198.8,295.146,290.033,-17.4126
12865,217401.6,295.482,290.372,-17.4012
12877,217604.4,295.818,290.71,-17.4102
12889,217807.2,296.157,291.047,-17.3918
12901,218010,296.495,291.385,-17.3699
12913,218212.8,296.832,291.723,-17.3562
12925,218415.6,297.17,292.06,-17.3246
12937,218618.4,297.506,292.397,-17.3351
12949,218821.2,297.845,292.734,-17.3198
12961,219024,298.184,293.069,-17.3082
12973,219226.8,298.5222,293.405,-17.2888
12985,219429.6,298.86,293.74,-17.2714
12997,219632.4,299.191,294.074,-17.2437
13009,219835.2,299.212,294.397,-17.1756
13021,220038,299.177,294.695,-16.8509
13033,220240.8,299.161,294.967,-16.1596
13045,220443.6,299.16,295.219,-15.2159
13057,220646.4,299.164,295.452,-14.18463
13069,220849.2,299.158,295.667,-13.14395
13081,221052,299.152,295.864,-12.12391
13093,221254.8,299.154,296.045,-11.1512
13105,221457.6,299.161,296.213,-10.2317
13117,221660.4,299.157,296.368,-9.374609
13129,221863.2,299.147,296.51,-8.582731
13141,222066,299.144,296.638,-7.837762
13153,222268.8,299.151,296.756,-7.123132
13165,222471.6,299.156,296.866,-6.475399
13177,222674.4,299.154,296.967,-5.878887
13189,222877.2,299.149,297.058,-5.357107
13201,223080,299.15,297.143,-4.856757
13213,223282.8,299.155,297.22,-4.384008
13225,223485.6,299.153,297.291,-3.974218
13237,223688.4,299.15,297.358,-3.601086
13249,223891.2,299.151,297.417,-3.252586
13261,224094,299.156,297.474,-2.926631
13273,224296.8,299.159,297.525,-2.622364
13285,224499.6,299.149,297.573,-2.366043
13297,224702.4,299.145,297.615,-2.112334
13309,224905.2,299.148,297.654,-1.865005
13321,225108,299.155,297.69,-1.624738
13333,225310.8,299.149,297.723,-1.440979
13345,225513.6,299.137,297.753,-1.255176
13357,225716.4,299.137,297.778,-1.053937
13369,225919.2,299.145,297.802,-0.877259
13381,226122,299.151,297.823,-0.715698
13393,226324.8,299.145,297.843,-0.587105
13405,226527.6,299.137,297.86,-0.462637
13417,226730.4,299.14,297.875,-0.344698
13429,226933.2,299.15,297.889,-0.221098
13441,227136,299.159,297.904,-0.135266
13453,227338.8,299.156,297.917,-0.080678
13465,227541.6,299.147,297.929,-0.043257
13477,227744.4,299.147,297.939,0.011329
13489,227947.2,299.151,297.949,0.070033
13501,228150,299.152,297.958,0.137319
13513,228352.8,299.146,297.967,0.186752
13525,228555.6,299.147,297.974,0.241506
13537,228758.4,299.152,297.981,0.289221
13549,228961.2,299.152,297.987,0.341571
13561,229164,299.148,297.992,0.356674
13573,229366.8,299.15,297.997,0.386195
13585,229569.6,299.156,298.002,0.416401
13597,229772.4,299.157,298.008,0.428242
13609,229975.2,299.157,298.015,0.434418
13621,230178,299.158,298.02,0.449349
13633,230380.8,299.148,298.025,0.446085
13645,230583.6,299.14,298.029,0.466852
13657,230786.4,299.143,298.03,0.514909
13669,230989.2,299.15,298.032,0.560907
13681,231192,299.152,298.035,0.591628
13693,231394.8,299.147,298.037,0.599007
13705,231597.6,299.15,298.039,0.616341
13717,231800.4,299.154,298.042,0.612049
13729,232003.2,299.155,298.044,0.626121
13741,232206,299.149,298.046,0.628694
13753,232408.8,299.147,298.048,0.639163
13765,232611.6,299.152,298.049,0.651177
13777,232814.4,299.156,298.051,0.649974
13789,233017.2,299.142,298.052,0.638645
13801,233220,299.138,298.052,0.659242
13813,233422.8,299.141,298.051,0.698546
13825,233625.6,299.15,298.05,0.743
13837,233828.4,299.154,298.051,0.746432
13849,234031.2,299.143,298.05,0.744373
13861,234234,299.141,298.048,0.756045
13873,234436.8,299.147,298.047,0.7775
13885,234639.6,299.153,298.046,0.800672
13897,234842.4,299.154,298.047,0.800671
13909,235045.2,299.149,298.047,0.769091
13921,235248,299.15,298.046,0.753301
13933,235450.8,299.155,298.047,0.751755
13945,235653.6,299.161,298.048,0.752613
13957,235856.4,299.15,298.049,0.722405
13969,236059.2,299.143,298.048,0.701466
13981,236262,299.145,298.048,0.720174
13993,236464.8,299.15,298.047,0.737338
14005,236667.6,299.158,298.047,0.746606
14017,236870.4,299.16,298.049,0.741112
14029,237073.2,299.161,298.052,0.713306
14041,237276,299.161,298.055,0.693909
14053,237478.8,299.163,298.058,0.650999
14065,237681.6,299.159,298.061,0.621305
14077,237884.4,299.159,298.065,0.605341
14089,238087.2,299.159,298.068,0.586631
14101,238290,299.161,298.073,0.571354
14113,238492.8,299.159,298.078,0.559509
14125,238695.6,299.16,298.082,0.549724
14137,238898.4,299.16,298.086,0.543199
14149,239101.2,299.163,298.091,0.538906
14161,239304,299.16,298.097,0.535986
14173,239506.8,299.159,298.102,0.534782
14185,239709.6,299.161,298.107,0.514871
14197,239912.4,299.16,298.112,0.501482
14209,240115.2,299.15,298.116,0.501651
14221,240318,299.148,298.12,0.512633
14233,240520.8,299.153,298.122,0.556395
14245,240723.6,299.157,298.126,0.582136
14257,240926.4,299.159,298.13,0.587969
14269,241129.2,299.156,298.134,0.588824
14281,241332,299.155,298.139,0.577152
14293,241534.8,299.157,298.142,0.569084
14305,241737.6,299.162,298.147,0.563589
14317,241940.4,299.162,298.152,0.567019
14329,242143.2,299.158,298.158,0.565643
14341,242346,299.156,298.161,0.57302
14353,242548.8,299.155,298.166,0.563064
14365,242751.6,299.158,298.17,0.547788
14377,242954.4,299.16,298.174,0.556023
14389,243157.2,299.162,298.18,0.571465
14401,243360,299.162,298.185,0.557562
14413,243562.8,299.159,298.19,0.546061
14425,243765.6,299.156,298.196,0.536105
14437,243968.4,299.157,298.2,0.539192
14449,244171.2,299.155,298.205,0.549829
14461,244374,299.155,298.209,0.561496
14473,244576.8,299.156,298.214,0.559949
14485,244779.6,299.155,298.218,0.559775
14497,244982.4,299.154,298.222,0.577105
14509,245185.2,299.156,298.226,0.582594
14521,245388,299.156,298.23,0.580361
14533,245590.8,299.154,298.234,0.59014
14545,245793.6,299.153,298.238,0.594771
14557,245996.4,299.152,298.241,0.589964
14569,246199.2,299.151,298.244,0.583785
14581,246402,299.151,298.247,0.595795
14593,246604.8,299.15,298.25,0.599569
14605,246807.6,299.15,298.252,0.608319
14617,247010.4,299.15,298.254,0.638862
14629,247213.2,299.149,298.256,0.654476
14641,247416,299.15,298.258,0.65173
14653,247618.8,299.15,298.26,0.647096
14665,247821.6,299.151,298.262,0.665112
14677,248024.4,299.151,298.263,0.666827
14689,248227.2,299.149,298.264,0.669915
14701,248430,299.149,298.266,0.695311
14713,248632.8,299.148,298.267,0.707836
14725,248835.6,299.148,298.268,0.718303
14737,249038.4,299.147,298.268,0.720533
14749,249241.2,299.147,298.269,0.733574
14761,249444,299.148,298.269,0.752793
14773,249646.8,299.15,298.269,0.775615
14785,249849.6,299.149,298.27,0.779733
14797,250052.4,299.148,298.27,0.786597
14809,250255.2,299.149,298.269,0.790201
14821,250458,299.15,298.27,0.788141
14833,250660.8,299.151,298.27,0.785396
14845,250863.6,299.149,298.27,0.805644
14857,251066.4,299.151,298.27,0.798265
14869,251269.2,299.152,298.27,0.795691
14881,251472,299.156,298.271,0.788998
14893,251674.8,299.157,298.272,0.78934
14905,251877.6,299.156,298.273,0.781446
14917,252080.4,299.156,298.275,0.765144
14929,252283.2,299.156,298.276,0.752273
14941,252486,299.155,298.278,0.753473
14953,252688.8,299.151,298.279,0.744206
14954,252705.7,299.151,298.279,0.745064