File: z_unorganized_archive/i_data/0.10Kmin/mean_H2O-NH3_4.8402g.csv
Index,Time(s),Furnace Temperature(K),Sample Temperature(K),HeatFlow(mW),T(K),Sample Temperature(K)_2
64.0,1064.7,299.437,300.0,49.8103,300.0,299.622
159.5,2678.65,296.869,299.0,8.54132,299.0,299.115
13873.5,234445,299.052,298.0,0.422259,298.0,298.224
11223.1,189654,297.806,297.0,-5.12303,297.0,297.062
10426.3,176187,296.823,296.0,-8.5327,296.0,296.034
9684.15,163645,295.677,295.0,-7.84362,295.0,295.017
9433.14,159403.166,294.787,294.0,-5.2279,294.0,293.998
9597.06,162173,293.858,293.0,-4.85954,293.0,292.998
9504.71,160613,292.606,292.0,-2.58539,292.0,291.999
9744.0,164656.7,291.815,291.0,-3.62083,291.0,290.993
9856.33,166555,290.904,290.0,-3.77422,290.0,289.997
9630.53,162739,289.538,289.0,-0.578205,289.0,289.004
9871.4,166810,288.834,288.0,-2.40737,288.0,287.993
9993.0,168864.8,288,287.0,-3.26941,287.0,286.998
9759.57,164920,286.653,286.0,-0.203304,286.0,286.011
9797.7,165564,285.692,285.0,-0.321858,285.0,284.998
9917.67,167592,284.876,284.0,-1.53946,284.0,283.993
9892.67,167169,283.863,283.0,-1.15127,283.0,283.007
9723.77,164315,282.604,282.0,0.966188,282.0,281.998
9842.11,166315,281.802,281.0,-0.541017,281.0,280.987
9817.11,165892,280.798,280.0,-0.321591,280.0,279.995
9792.11,165470,279.793,279.0,-0.130819,279.0,279.003
9767.11,165047,278.791,278.0,-0.0276132,278.0,278.008
9742.11,164625,277.79,277.0,0.041793,277.0,277.012
9774.11,165166,276.872,276.0,-0.92973,276.0,276.003
9631.95,162763,275.679,275.0,-1.02908,275.0,275.004
9667.11,163357,274.793,274.0,-12.8299,274.0,274.015
9698.46,163887,273.886,273.0,-80.1492,273.0,273.003
9616.33,162499,272.789,272.0,-152.299,272.0,272.001
9647.24,163021,271.888,271.0,-166.553,271.0,271.004
9565.56,161641,270.799,270.0,-157.042,270.0,270.009
9403.62,158904,269.564,269.0,-133.521,269.0,269.003
9570.24,161720,268.887,268.0,-117.754,268.0,267.987
9489.22,160351,267.801,267.0,-97.0574,267.0,266.993
9519.02,160855,266.911,266.0,-81.8392,266.0,266
9246.17,156243,265.49,265.0,-62.523,265.0,264.996
9468.02,159993,264.926,264.0,-56.0877,264.0,263.993
9387.89,158638,263.853,263.0,-45.1879,263.0,263.001
9229.74,155966,262.632,262.0,-34.867,262.0,262
9148.17,154587,261.534,261.0,-27.3669,261.0,260.989
9312.56,157365,260.887,260.0,-25.3341,260.0,260.001
9156.04,154720,259.675,259.0,-18.6029,259.0,259.002
9075.17,153354,258.58,258.0,-13.8888,258.0,257.995
9290.02,156984,258.017,257.0,-14.4672,257.0,257.001
8848.81,149528,256.299,256.0,269.478,256.0,256.001
9057.57,153056,255.713,255.0,272.652,255.0,254.997
8977.65,151705,254.63,254.0,246.658,254.0,254.002
8778.55,148341,253.344,253.0,201.95,253.0,253.008
8984.34,151818,252.766,252.0,122.453,252.0,252
8905.13,150480,251.686,251.0,81.6637,251.0,251.003
8764.75,148107.375,250.496,250.0,54.9073,250.0,249.998
8856.61,149660,249.719,249.0,31.8069,249.0,248.992
8661.3,146359,248.439,248.0,23.8054,248.0,247.999
8862.11,149753,247.854,247.0,12.3583,247.0,246.999
8614.3,145565,246.48,246.0,11.8467,246.0,245.998
8760.33,148033,245.81,245.0,6.57757,245.0,245.009
8623.0,145712,244.63,244.0,6.52153,244.0,244.011
8544.3,144382,243.546,243.0,5.94859,243.0,243.003
8521.3,143993,242.573,242.0,5.12814,242.0,242.009
8552.5,144520.35,241.691,241.0,3.79759,241.0,241.005
8474.55,143203,240.615,240.0,3.79223,240.0,240.005
8293.98,140151,239.359,239.0,5.03611,239.0,239.006
8482.25,143333.125,238.753,238.0,2.27421,238.0,237.998
8405.06,142029,237.687,237.0,2.62123,237.0,237.004
8281.73,139944,236.529,236.0,3.21906,236.0,236.001
8203.98,138630,235.444,235.0,3.45348,235.0,234.989
8335.83,140859,234.754,234.0,1.51401,234.0,234
8159.71,137882,233.517,233.0,2.47161,233.0,233.014
8191.67,138422,232.638,232.0,1.80375,232.0,232.009
8114.98,137126,231.566,231.0,2.08759,231.0,231.007
7948.29,134309,230.337,230.0,3.02626,230.0,230.008
8124.41,137286,229.717,229.0,1.08405,229.0,229
7905.29,133582,228.39,228.0,2.47838,228.0,227.995
8026.79,135636,227.683,227.0,1.12025,227.0,227.003
7917.14,133782.766,226.554,226.0,1.50613,226.0,226.004
7841.29,132501,225.478,225.0,1.70597,225.0,224.998
7820.29,132146,224.515,224.0,1.34808,224.0,224.004
7799.29,131791,223.55,223.0,1.05987,223.0,223.012
7699.59,130106,222.425,222.0,1.28025,222.0,222.004
7756.86,131074,221.587,221.0,0.374997,221.0,220.998
7604.0,128491,220.384,220.0,1.37951,220.0,220.005
7637.71,129060,219.5,219.0,0.778083,219.0,218.994
7693.71,130007,218.665,218.0,-0.113321,218.0,217.997
7543.0,127459.8,217.466,217.0,0.577076,217.0,217.012
7453.27,125943,216.344,216.0,1.06064,216.0,215.999
7502.6,126777,215.47,215.0,0.306673,215.0,214.988
7482.6,126439,214.494,214.0,0.296781,214.0,213.998
7514.53,126979,213.607,213.0,-0.141579,213.0,213
7320.76,123704,212.301,212.0,0.739651,212.0,211.994
7422.2,125418.28,211.547,211.0,-0.142737,211.0,210.999
7282.45,123057,210.352,210.0,0.561545,210.0,210.005
7315.5,123615,209.466,209.0,0.125648,209.0,208.994
7362.1,124402.59,208.621,208.0,-0.457947,208.0,207.997
7224.45,122076,207.442,207.0,0.155422,207.0,207.012
7145.3,120739,206.346,206.0,0.245727,206.0,206.001
7186.08,121428,205.473,205.0,-0.149245,205.0,204.993
7056.02,119230,204.296,204.0,0.287853,204.0,203.996
7148.39,120791,203.543,203.0,-0.567642,203.0,203.003
7070.7,119478,202.464,202.0,-0.32575,202.0,202.004
7001.02,118300,201.393,201.0,-0.0670683,201.0,200.998
6983.02,117996.125,200.426,200.0,-0.206361,200.0,200.006
6912.5,116804.35,199.346,199.0,0.0110201,199.0,198.997
6946.67,117381.875,198.468,198.0,-0.410626,198.0,197.992
6826.47,115350,197.312,197.0,0.104717,197.0,196.999
6809.47,115063,196.352,196.0,0.0303758,196.0,196.001
6842.17,115616,195.482,195.0,-0.369468,195.0,194.998
6774.81,114477,194.422,194.0,-0.203176,194.0,193.999
6662.02,112571,193.266,193.0,0.148239,193.0,193.004
6789.83,114731,192.564,192.0,-0.730242,192.0,192.001
6629.02,112014,191.318,191.0,-0.165853,191.0,191.001
6613.02,111743,190.352,190.0,-0.439878,190.0,190.005
6507.27,109956,189.221,189.0,-0.0832633,189.0,189.006
6629.51,112022,188.531,188.0,-0.784491,188.0,188.002
6476.27,109432,187.314,187.0,-0.293495,187.0,187.003
6461.27,109179,186.359,186.0,-0.432908,186.0,186.008
6362.25,107505.125,185.244,185.0,-0.0732448,185.0,185.009
6396.32,108081,184.36,184.0,-0.435329,184.0,183.996
6333.625,107021,183.285,183.0,-0.426061,183.0,182.986
6319.625,106785,182.312,182.0,-0.487277,182.0,181.99
6305.625,106548,181.358,181.0,-0.578728,181.0,180.999
6213.65,104994,180.245,180.0,-0.395701,180.0,180.003
6324.21,106862,179.512,179.0,-2.98242,179.0,179.002
6186.65,104537,178.304,178.0,-22.0832,178.0,178.005
6146.64,103861,177.274,177.0,-42.7148,177.0,177
6160.42,104094,176.355,176.0,-10.7268,176.0,176
6075.19,102654,175.274,175.0,0.058169,175.0,175.01
6039.7,102054.03,174.259,174.0,0.63872,174.0,174
6050.98,102245,173.323,173.0,2.87914,173.0,172.995
5971.02,100893,172.221,172.0,6.01298,172.0,172.002
6004.5,101459.15,171.353,171.0,-7.0343,171.0,170.999
5948.42,100511,170.288,170.0,-0.914287,170.0,170.001
5917.51,99989,169.275,169.0,0.0480089,169.0,168.999
5862.92,99066.4,168.226,168.0,0.283318,168.0,167.992
5852.92,98897.4,167.26,167.0,0.341285,167.0,167
5825.89,98440.6,166.258,166.0,0.322469,166.0,165.998
5773.26,97551.2,165.193,165.0,0.449596,165.0,164.995
5806.47,98112.4,164.308,164.0,0.17809,164.0,163.996
5754.69,97237.3,163.27,163.0,0.317366,163.0,162.999
5689.84,96141.4,162.205,162.0,0.518732,162.0,162.009
5669.69,95800.8,161.188,161.0,0.466162,161.0,161.001
5673.71,95868.8,160.228,160.0,0.391098,160.0,159.996
5653.81,95532.5,159.254,159.0,0.694542,159.0,158.998
5605.78,94720.7,158.217,158.0,0.829151,158.0,157.999
5549.16,93763.8,157.18,157.0,1.3872,157.0,157.008
5535.05,93525.4,156.23,156.0,3.04528,156.0,156.006
5444.53,91995.7,155.094,155.0,7.36682,155.0,155
5479.13,92580.5,154.241,154.0,10.7479,154.0,153.996
5392.88,91122.8,153.128,153.0,10.1625,153.0,152.997
5427.62,91709.8,152.26,152.0,7.29691,152.0,151.999
5345.56,90323,151.113,151.0,4.57496,151.0,151.001
5380.39,90911.7,150.2,150.0,2.41813,150.0,150.001
5341.04,90246.7,149.156,149.0,1.33212,149.0,149.003
5299.92,89551.7,148.129,148.0,0.59848,148.0,148.001
5263.5,88936.25,147.129,147.0,0.237019,147.0,146.999
5229.55,88362.5,146.14,146.0,-0.0972464,146.0,145.999
5196.15,87798.1,145.131,145.0,-0.277473,145.0,145.003
5199.99,87862.9,144.156,144.0,-0.406434,144.0,144.008
5171.28,87377.7,143.138,143.0,-0.353704,143.0,143.003
5144.87,86931.4,142.144,142.0,-0.47046,142.0,142.001
5088.55,85979.6,141.036,141.0,-0.273799,141.0,141.003
5126.17,86615.4,140.127,140.0,-0.416639,140.0,140.004
5104.65,86251.7,139.075,139.0,-0.396077,139.0,138.999
5110.65,86353.2,138.121,138.0,-0.538706,138.0,137.995
5067.45,85623,137.055,137.0,-0.320001,137.0,136.992
5046.22,85264.1,136.01,136.0,-0.360231,136.0,135.995
5083.9,85901.01,135.069,135.0,-0.474873,135.0,134.999
5114.82,86423.6,134.11,134.0,-0.637187,134.0,134.002
5099.35,86162.115,133.049,133.0,-0.518455,133.0,133.002
5107.35,86297.315,132.087,132.0,-0.587207,132.0,132
5053.86,85393.3,131.006,131.0,-0.376813,131.0,130.999
5045.79,85256.9,130.054,130.0,-0.568179,130.0,129.998
4987.59,84273.4,128.982,129.0,-0.487717,129.0,128.996
4987.46,84271.2,128.033,128.0,-0.625889,128.0,127.996
4959.41,83797.2,126.989,127.0,-0.573314,127.0,126.999
4938.44,83442.8,125.965,126.0,-0.543465,126.0,125.996
4936.33,83407.1,124.974,125.0,-0.584174,125.0,124.993
4904.79,82874.1,123.96,124.0,-0.531407,124.0,123.993
4904.6,82870.8,122.939,123.0,-0.646155,123.0,123.003
5085.31,85924.8,122.051,122.0,-1.23064,122.0,122.015
5388.84,91054.4,120.981,121.0,-1.61232,121.0,121.007
5609.57,94784.9,119.995,120.0,-1.62969,120.0,120.006
5725.1,96737.29,119.039,119.0,-1.45293,119.0,119.009
5768.53,97471.3,117.964,118.0,-1.15601,118.0,118.001
5812.82,98219.8,117.077,117.0,-1.19148,117.0,117.001
5794.82,97915.6,115.957,116.0,-0.654632,116.0,116.004
5776.82,97611.4,114.874,115.0,-0.496951,115.0,115.005
5773.33,97552.4,113.934,114.0,-0.545585,114.0,114
5783.18,97718.8,113.124,113.0,-0.806116,113.0,113.003
5748.34,97130.1,112.042,112.0,-0.639821,112.0,112.011
5714.83,96563.8,110.971,111.0,-0.430333,111.0,111.004
5682.52,96017.6,109.902,110.0,-0.346933,110.0,109.991
5662.52,95679.6,108.947,109.0,-0.383685,109.0,108.99
5653.17,95521.6,108.054,108.0,-0.445783,108.0,107.996
5611.16,94811.7,106.933,107.0,-0.248201,107.0,106.997
5598.21,94592.8,105.968,106.0,-0.290574,106.0,105.994
5586.57,94396.1,104.923,105.0,-0.131666,105.0,104.983
5657.22,95590.1,103.946,104.0,0.0305796,104.0,103.952
5769.26,97483.6,102.89,103.0,-0.555415,103.0,103.027
5397.62,91202.9,101.887,102.0,-0.563756,102.0,102.018
5149.0,87001.2,100.852,101.0,-0.508179,101.0,100.995
4939.96,83468.4,99.8411,100.0,-0.500413,100.0,99.9831
4770.5,80604.55,98.9785,99.0,-0.415962,99.0,99.1355