File: z_unorganized_archive/i_data/0.10Kmin/mean_H2O-NH3_3.7778g.csv
Index,Time(s),Furnace Temperature(K),Sample Temperature(K),HeatFlow(mW),T(K),Sample Temperature(K)_2
71.0,1183.0,298.399,299.0,17.2913,299.0,298.895
13804.3,233275,299.044,298.0,0.282046,298.0,298.04
11149.7,188412,297.832,297.0,-5.29392,297.0,297.063
10295.3,173973,296.758,296.0,-7.95895,296.0,296.024
9831.5,166135,295.863,295.0,-8.66916,295.0,295.014
9422.22,159219,294.795,294.0,-5.52102,294.0,294.008
9586.71,161999,293.846,293.0,-4.92603,293.0,293.009
9494.15,160434,292.572,292.0,-2.81914,292.0,292.007
9734.25,164492,291.764,291.0,-3.46906,291.0,291
9847.0,166397.4,290.841,290.0,-3.46783,290.0,290.001
9886.28,167061,289.84,289.0,-3.02145,289.0,289.005
9798.24,165573,288.665,288.0,-1.58098,288.0,288.002
10043.7,169722,288.005,287.0,-3.33087,287.0,287.004
9749.24,164745,286.545,286.0,-0.201136,286.0,286
9933.56,167860,285.826,285.0,-1.58871,285.0,285.003
9967.5,168433.85,284.883,284.0,-1.67172,284.0,284.004
9882.78,167002,283.754,283.0,-0.716618,283.0,283.005
9916.28,167568,282.82,282.0,-1.0174,282.0,282.004
9832.0,166143.9,281.705,281.0,-0.185155,281.0,281.002
9865.07,166703,280.78,280.0,-0.588194,280.0,279.996
9781.22,165286,279.666,279.0,0.202519,279.0,278.99
9756.22,164863,278.662,278.0,0.324174,278.0,277.994
9996.6,168925.64,278.104,277.0,-2.28617,277.0,276.997
9705.22,164001,276.662,276.0,0.593823,276.0,276
9680.22,163579,275.664,275.0,0.641342,275.0,275.003
9655.22,163156,274.669,274.0,0.689909,274.0,274.006
9686.76,163689,273.762,273.0,0.152437,273.0,272.997
9604.44,162298,272.663,272.0,0.826983,272.0,271.99
9786.05,165367,272.037,271.0,-1.34782,271.0,271.006
9610.11,162394,270.791,270.0,0.310715,270.0,270.011
9528.44,161014,269.697,269.0,0.88453,269.0,269.008
9558.89,161528,268.797,268.0,0.295443,268.0,268.006
9477.67,160156,267.702,267.0,0.881765,267.0,267.006
9507.67,160663,266.808,266.0,0.265312,266.0,266.005
9233.89,156036,265.378,265.0,2.9644,265.0,264.994
9402.11,158879,264.728,264.0,0.800878,264.0,263.993
9431.46,159375,263.839,263.0,0.207823,263.0,262.995
9351.33,158021,262.761,262.0,0.712269,262.0,261.997
9136.41,154388,261.451,261.0,2.64121,261.0,261.001
9355.24,158087,260.891,260.0,-0.0493901,260.0,259.996
9275.78,156744,259.821,259.0,0.418928,259.0,259.003
9063.17,153151,258.517,258.0,2.29534,258.0,258.011
9095.04,153689,257.622,257.0,1.5367,257.0,256.998
9200.44,155471,256.868,256.0,0.0794267,256.0,255.998
8990.17,151917,255.574,255.0,1.99081,255.0,255.011
9021.34,152444,254.688,254.0,1.28656,254.0,254.002
8941.41,151093,253.609,253.0,1.73646,253.0,252.996
8917.41,150687,252.639,252.0,1.64343,252.0,252.003
8947.87,151202,251.756,251.0,0.813954,251.0,251
8868.65,149863,250.684,250.0,1.23719,250.0,250
8671.79,146536,249.406,249.0,2.75565,249.0,249.003
8874.64,149964,248.827,248.0,0.197611,248.0,247.996
8624.79,145742,247.451,247.0,2.36407,247.0,246.991
8772.37,148236,246.784,246.0,0.468661,246.0,246
8578.53,144960,245.513,245.0,2.06721,245.0,245.009
8610.75,145504.775,244.624,244.0,1.30162,244.0,243.999
8531.79,144170,243.541,243.0,1.59196,243.0,242.991
8508.79,143782,242.571,242.0,1.45137,242.0,241.996
8540.25,144313,241.692,241.0,0.839928,241.0,240.992
8462.04,142992,240.62,240.0,1.15684,240.0,239.991
8439.04,142603,239.655,239.0,1.14154,239.0,239.001
8258.44,139551,238.401,238.0,2.40775,238.0,238.003
8446.75,142733,237.791,237.0,0.24203,237.0,236.997
8213.44,138790,236.434,236.0,2.09393,236.0,235.992
8346.81,141044,235.743,235.0,0.467632,235.0,235
8169.17,138042,234.501,234.0,1.78175,234.0,234.01
8201.67,138591,233.618,233.0,1.08561,233.0,233.001
8124.44,137286,232.539,232.0,1.48331,232.0,231.994
8102.44,136914,231.574,231.0,1.344779,231.0,231
8080.44,136542,230.609,230.0,1.18425,230.0,230.009
7968.98,134658.862,229.474,229.0,1.9019,229.0,228.999
8035.98,135791,228.649,228.0,0.727594,228.0,227.994
7870.71,132998,227.426,227.0,1.81299,227.0,227.001
7992.25,135052,226.721,226.0,0.358286,226.0,226.008
7882.58,133198.702,225.587,225.0,1.10131,225.0,225.008
7806.71,131917,224.505,224.0,1.33365,224.0,224.002
7785.71,131562,223.539,223.0,1.16627,223.0,223.007
7764.71,131207,222.57,222.0,0.800715,222.0,222.014
7665.0,129522,221.452,221.0,1.52094,221.0,221.003
7722.29,130490,220.614,220.0,0.590284,220.0,219.994
7569.4,127905.96,219.405,219.0,1.74942,219.0,219
7549.4,127567.96,218.425,218.0,1.60563,218.0,217.999
7711.74,130312,217.78,217.0,-0.341341,217.0,217
7508.4,126875,216.481,216.0,1.24907,216.0,216.003
7488.4,126537,215.514,215.0,0.967245,215.0,215.009
7399.04,125026.85,214.402,214.0,1.3662,214.0,213.998
7448.0,125854.3,213.549,213.0,0.401604,213.0,212.99
7306.14,123457,212.355,212.0,1.43346,212.0,211.994
7408.3,125183.37,211.611,211.0,0.0991569,211.0,211.001
7320.5,123700,210.507,210.0,-0.293091,210.0,209.999
7248.14,122477,209.431,209.0,-2.41474,209.0,208.991
7229.14,122156,208.462,208.0,-4.14131,208.0,207.997
7210.14,121834,207.493,207.0,-4.24508,207.0,207.005
7242.58,122383,206.621,206.0,-4.73717,206.0,206.006
7059.02,119280.525,205.339,205.0,-3.32979,205.0,205.001
7041.02,118976,204.363,204.0,-3.25613,204.0,204
7184.58,121402,203.694,203.0,-4.62363,203.0,203
7004.02,118351.025,202.425,202.0,-3.17475,202.0,202.004
6880.49,116263,201.261,201.0,-2.24656,201.0,201
6968.35,117748.15,200.496,200.0,-3.20332,200.0,200
6897.5,116550.85,199.429,199.0,-2.85452,199.0,198.996
6932.0,117133.9,198.548,198.0,-3.48324,198.0,197.995
6811.15,115092,197.384,197.0,-2.57459,197.0,197.007
6844.5,115655,196.508,196.0,-3.19066,196.0,196.004
6776.49,114506,195.446,195.0,-2.78767,195.0,195.002
6662.43,112578,194.296,194.0,-2.03432,194.0,194.003
6646.43,112308,193.326,193.0,-1.88065,193.0,193.001
6680.27,112880,192.459,192.0,-2.41913,192.0,191.994
6613.78,111756,191.402,191.0,-2.09623,191.0,190.991
6597.78,111486,190.447,190.0,-2.13821,190.0,190.001
6491.45,109689,189.303,189.0,-1.54331,189.0,189.006
6525.64,110266,188.415,188.0,-2.06889,188.0,187.995
6460.82,109171,187.35,187.0,-1.87122,187.0,186.988
6445.82,108917,186.401,186.0,-2.04464,186.0,185.994
6430.82,108664,185.446,185.0,-2.12347,185.0,185.003
6331.875,106992,184.32,184.0,-1.6029,184.0,184.007
6317.875,106755,183.359,183.0,-2.07406,183.0,183.006
6303.875,106519,182.399,182.0,-5.03461,182.0,182.009
6210.74,104945,181.288,181.0,-30.0644,181.0,181.008
6245.19,105527,180.392,180.0,-108.193,180.0,180
6308.53,106597,179.558,179.0,-135.9,179.0,179.002
6142.71,103795,178.277,178.0,-106.186,178.0,178.001
6203.19,104817,177.452,177.0,-66.6166,177.0,176.996
6069.95,102565,176.25,176.0,-9.40711,176.0,176
6103.93,103140,175.368,175.0,5.31127,175.0,174.995
6045.34,102149,174.305,174.0,8.80715,174.0,173.995
5964.31,100780,173.211,173.0,11.0888,173.0,173.001
5998.5,101357.75,172.334,172.0,11.4286,172.0,171.995
5941.71,100398,171.288,171.0,12.0293,171.0,170.996
5910.48,99870.1,170.287,170.0,12.1699,170.0,169.994
5919.53,100023,169.35,169.0,11.4525,169.0,168.997
5827.27,98464,168.221,168.0,11.3836,168.0,167.997
5834.58,98587.6,167.278,167.0,9.84598,167.0,166.994
5764.08,97396.1,166.187,166.0,8.94635,166.0,166.002
5798.02,97969.6,165.307,165.0,7.39726,165.0,164.999
5745.51,97082.2,164.281,164.0,6.30271,164.0,164.004
5722.0,96684.9,163.295,163.0,5.41863,163.0,163.009
5616.67,94904.8,162.106,162.0,5.22325,162.0,162.003
5705.0,96397.6,161.308,161.0,4.25296,161.0,160.999
5654.98,95552.3,160.181,160.0,4.26491,160.0,160
5741.85,97020.4,159.305,159.0,3.63971,159.0,159.001
5747.67,97118.7,158.209,158.0,3.81391,158.0,158.003
5892.41,99564.8,157.369,157.0,3.28771,157.0,157.005
5901.68,99721.6,156.166,156.0,3.72073,156.0,156.004
6051.64,102256,155.385,155.0,3.34482,155.0,155.002
5999.45,101374,154.186,154.0,4.22338,154.0,154.003
6020.29,101726,153.249,153.0,4.34989,153.0,152.998
6068.53,102541,152.434,152.0,4.17992,152.0,151.996
5952.82,100586,151.174,151.0,5.42837,151.0,151.007
5972.57,100920,150.293,150.0,6.71905,150.0,150.012
5896.47,99633.5,149.147,149.0,11.9923,149.0,149.003
5940.93,100385,148.341,148.0,27.4056,148.0,147.995
5832.0,98543.9,147.114,147.0,70.3898,147.0,146.998
5818.0,98307.3,146.144,146.0,120.807,146.0,145.998
5804.0,98070.7,145.191,145.0,77.2611,145.0,144.999
5734.67,96899,144.095,144.0,27.0159,144.0,144
5754.67,97237.1,143.235,143.0,8.32486,143.0,142.995
5740.67,97000.5,142.288,142.0,2.23592,142.0,141.992
5642.86,95347.5,141.101,141.0,0.994718,141.0,140.996
5663.03,95688.4,140.243,140.0,-0.0649381,140.0,140.001
5650.03,95468.7,139.271,139.0,-0.366547,139.0,139.002
5589.3,94442.3,138.206,138.0,-0.185321,138.0,138.004
5531.74,93469.5,137.185,137.0,-0.154681,137.0,137.001
5477.24,92548.5,136.133,136.0,-0.0579956,136.0,135.996
5467.24,92379.5,135.146,135.0,-0.403028,135.0,134.993
5426.82,91696.4,134.119,134.0,-0.376385,134.0,134.002
5368.31,90707.6,133.069,133.0,-0.191059,133.0,133.008
5360.31,90572.4,132.106,132.0,-0.422598,132.0,132
5352.31,90437.2,131.156,131.0,-0.562022,131.0,131.001
5301.25,89574.3,130.134,130.0,-0.499858,130.0,129.996
5232.9,88419,129.105,129.0,-0.421245,129.0,128.989
5164.87,87269.4,128.056,128.0,-0.343351,128.0,127.992
5103.46,86231.7,127.017,127.0,-0.334622,127.0,126.993
5048.3,85299.4,126.04,126.0,-0.407065,126.0,125.994
4999.04,84466.9,125.014,125.0,-0.558933,125.0,125
4955.38,83729,123.997,124.0,-0.676883,124.0,124.001
4921.14,83150.3,123.018,123.0,-1.21454,123.0,122.994
4845.64,81874.4,121.958,122.0,-1.5326,122.0,121.988
4770.86,80610.7,120.945,121.0,-1.28475,121.0,120.995
4749.09,80242.7,119.998,120.0,-0.924583,120.0,119.998
4701.55,79439.3,118.952,119.0,-0.372935,119.0,118.996
4713.45,79640.5,117.949,118.0,-0.253539,118.0,117.996
4704.74,79493.1,116.936,117.0,-0.0626306,117.0,116.994
4673.22,78960.6,115.904,116.0,-0.00454858,116.0,115.999
4673.32,78962.2,114.914,115.0,0.158251,115.0,114.999
4641.216,78419.7,113.895,114.0,-0.0186784,114.0,113.993
4663.56,78797.3,112.901,113.0,-0.23015,113.0,113.002
4711.21,79602.6,111.914,112.0,-0.300627,112.0,111.991
4729.65,79914.1,110.871,111.0,-0.296783,111.0,110.997
4795.98,81035.2,109.887,110.0,-0.365463,110.0,109.997
4826.1,81544.2,108.851,109.0,-0.3172,109.0,108.989
4920.74,83143.7,107.874,108.0,-0.418929,108.0,107.999
5023.71,84883.9,106.869,107.0,-0.401819,107.0,106.984
5127.79,86642.8,105.863,106.0,-0.397168,106.0,105.993
5266.22,88982.2,104.843,105.0,-0.314215,105.0,104.969
5598.5,94597.7,103.752,104.0,-0.494568,104.0,103.905