File: z_unorganized_archive/i_data/0.10Kmin/mean_H2O-NH3_2.5108g.csv
Index,Time(s),Furnace Temperature(K),Sample Temperature(K),HeatFlow(mW),T(K),Sample Temperature(K)_2
64.0,1064.7,298.426,299.0,28.1347,299.0,298.682
13677.9,231139,299.039,298.0,0.557409,298.0,298.09
11069.8,187063,297.929,297.0,-2.12309,297.0,297.073
10200.6,172374,296.84,296.0,-3.91319,296.0,296.033
9785.33,165355,295.967,295.0,-4.89534,295.0,295.018
9246.71,156252,294.788,294.0,-2.63785,294.0,294.011
9404.74,158923,293.809,293.0,-2.09642,293.0,293.008
9498.85,160514,292.765,292.0,-1.58458,292.0,292.011
9546.1,161312,291.694,291.0,-1.05093,291.0,291.006
9648.64,163045,290.73,290.0,-0.894959,290.0,289.997
9891.09,167142,290.005,289.0,-1.68002,289.0,289.002
9803.11,165656,288.845,288.0,-0.822079,288.0,288.009
9841.85,166310,287.867,287.0,-0.77263,287.0,287.012
9816.85,165888,286.79,286.0,-0.471657,286.0,285.999
9729.59,164413,285.643,285.0,0.194186,285.0,284.99
9912.89,167511,284.932,284.0,-0.843318,284.0,283.994
9681.35,163598,283.587,283.0,0.643406,283.0,282.994
9863.11,166670,282.887,282.0,-0.756373,282.0,281.99
9838.11,166247,281.877,281.0,-3.01283,281.0,280.995
9813.11,165825,280.867,280.0,-23.1182,280.0,280
9788.11,165402,279.867,279.0,-156.822,279.0,279.006
9621.04,162579,278.617,278.0,-264.884,278.0,278.005
9849.77,166444,277.987,277.0,-278.117,277.0,276.991
9768.11,165064,276.875,276.0,-213.616,276.0,275.988
9742.11,164625,275.863,275.0,-123.316,275.0,274.991
9659.44,163228,274.768,274.0,-27.3788,274.0,273.998
9634.44,162805,273.785,273.0,7.17485,273.0,273.01
9665.67,163333,272.886,272.0,7.15475,272.0,272.01
9386.39,158613,271.459,271.0,8.84444,271.0,271
9614.67,162471,270.883,270.0,7.28308,270.0,269.99
9533.11,161093,269.802,269.0,7.63545,269.0,268.993
9313.15,157375,268.489,268.0,8.91207,268.0,267.996
9483.33,160251,267.836,267.0,7.67242,267.0,266.999
9513.24,160757,266.949,266.0,7.33031,266.0,266.004
9239.91,156138,265.539,265.0,8.91094,265.0,265
9407.78,158975,264.884,264.0,7.68666,264.0,264.008
9248.83,156288,263.67,263.0,8.53129,263.0,263.007
9166.91,154904,262.578,262.0,8.9165,262.0,261.996
9142.91,154498,261.594,261.0,8.85925,261.0,260.997
9361.24,158188,261.029,260.0,7.2482,260.0,260.001
9093.91,153670,259.635,259.0,8.76738,259.0,259.005
9069.91,153265,258.66,258.0,64.4911,258.0,258.01
8925.75,150828.275,257.453,257.0,378.171,257.0,257.005
9021.39,152445,256.67,256.0,301.254,256.0,256.004
8878.25,150025.525,255.475,255.0,151.595,255.0,254.997
8972.87,151625,254.688,254.0,64.6729,254.0,253.989
8948.87,151219,253.723,253.0,30.8858,253.0,253.004
8807.25,148825.625,252.533,252.0,15.4877,252.0,251.998
8900.35,150399,251.756,251.0,6.94938,251.0,250.992
8876.35,149993,250.793,250.0,3.49793,250.0,250.009
8736.25,147625.725,249.608,249.0,2.33053,249.0,249.008
8656.19,146273,248.522,248.0,1.7634,248.0,247.997
8633.19,145884,247.549,247.0,1.29548,247.0,246.998
8833.43,149268,246.959,246.0,0.432466,246.0,246.002
8586.19,145090,245.593,245.0,0.988421,245.0,245.009
8563.19,144701,244.629,244.0,0.772021,244.0,244.016
8436.35,142557,243.464,243.0,1.1667,243.0,243.001
8516.7,143915,242.65,242.0,0.775971,242.0,241.991
8493.7,143527,241.682,241.0,0.710778,241.0,241.005
8368.29,141407,240.516,240.0,1.01244,240.0,240.001
8447.21,142741,239.717,239.0,0.635045,239.0,238.999
8322.76,140638,238.558,238.0,0.869744,238.0,237.997
8400.72,141955,237.756,237.0,0.35241,237.0,236.998
8222.1,138937,236.519,236.0,0.928772,236.0,236.011
8254.96,139492,235.632,235.0,0.634772,235.0,235.004
8177.375,138181,234.556,234.0,0.845383,234.0,234
8155.375,137809,233.586,233.0,0.72324,233.0,233.008
8042.9,135908.11,232.439,232.0,0.966121,232.0,231.998
8110.92,137058,231.612,231.0,0.73526,231.0,230.991
8088.92,136686,230.649,230.0,0.578543,230.0,230.006
7922.71,133877,229.424,229.0,1.02559,229.0,229.013
7956.5,134447.95,228.534,228.0,0.775655,228.0,228.001
7880.0,133155.1,227.452,227.0,0.900233,227.0,226.992
8001.0,135200.0,226.742,226.0,0.417929,226.0,226.005
7891.66,133352,225.615,225.0,0.557796,225.0,225.011
7681.1,129793.69,224.292,224.0,1.23796,224.0,223.999
7795.29,131723,223.558,223.0,0.569325,223.0,222.999
7827.38,132266,222.681,222.0,0.295716,222.0,222.001
7619.8,128758,221.368,221.0,0.788145,221.0,220.997
7731.86,130651,220.637,220.0,0.483558,220.0,220.004
7633.29,128986,219.525,219.0,0.713912,219.0,219.004
7558.8,127726.82,218.446,218.0,0.73904,218.0,217.996
7538.8,127388.82,217.477,217.0,0.58183,217.0,217.001
7518.8,127050.82,216.509,216.0,0.480271,216.0,216.008
7429.35,125539,215.397,215.0,0.692215,215.0,214.999
7478.4,126368,214.539,214.0,0.42688,214.0,213.991
7336.37,123968,213.345,213.0,0.75739,213.0,212.996
7438.7,125697,212.601,212.0,0.180384,212.0,212.003
7350.81,124211.75,211.502,211.0,0.470011,211.0,211.002
7278.37,122988,210.423,210.0,0.479021,210.0,209.995
7259.37,122666,209.458,209.0,0.288884,209.0,209
7240.37,122345,208.495,208.0,0.352357,208.0,208.008
7160.77,121000,207.406,207.0,0.40596,207.0,207
7202.0,121697,206.54,206.0,0.305359,206.0,205.996
7071.1,119484.625,205.37,205.0,0.608785,205.0,205.005
7053.1,119180,204.397,204.0,0.522258,204.0,204.007
7086.49,119745,203.517,203.0,0.311657,203.0,203
7016.42,118560.65,202.43,202.0,0.213849,202.0,201.998
6998.42,118256,201.459,201.0,0.0341969,201.0,201.005
6876.08,116189,200.275,200.0,0.332682,200.0,200.004
7012.85,118500,199.564,199.0,-0.0987755,199.0,198.997
6944.08,117338.0,198.478,198.0,-0.0458167,198.0,198
6823.74,115304,197.292,197.0,0.286936,197.0,197.004
6908.4,116735.125,196.507,196.0,-0.0887398,196.0,196.009
6839.17,115565,195.424,195.0,0.160062,195.0,195.004
6771.74,114425,194.332,194.0,0.306107,194.0,193.993
6754.74,114138,193.366,193.0,-0.00708675,193.0,192.992
6737.74,113851,192.401,192.0,-0.0412037,192.0,191.993
6720.74,113564,191.431,191.0,-0.0816203,191.0,190.997
6703.74,113276,190.469,190.0,-0.229009,190.0,190.006
6593.39,111411,189.314,189.0,-0.090471,189.0,189.01
6577.39,111141,188.345,188.0,-0.0651349,188.0,188.006
6609.29,111680,187.465,187.0,-0.264025,187.0,186.997
6544.74,110589,186.403,186.0,-0.262244,186.0,185.99
6528.74,110319,185.444,185.0,-0.271585,185.0,184.995
6426.0,108582,184.3,184.0,-0.124504,184.0,183.995
6411.0,108329,183.327,183.0,-0.265568,183.0,182.99
6396.0,108075,182.348,182.0,-0.261144,182.0,181.989
6381.0,107822,181.376,181.0,-0.317491,181.0,180.991
6366.0,107568,180.399,180.0,-0.411093,180.0,179.998
6396.79,108089,179.528,179.0,-0.48183,179.0,178.999
6255.5,105701,178.289,178.0,-0.172176,178.0,177.996
6320.73,106803,177.493,177.0,-0.354245,177.0,177.004
6197.12,104714,176.302,176.0,-0.221017,176.0,176.001
6212.875,104981,175.377,175.0,-0.162429,175.0,174.995
6243.42,105497,174.492,174.0,-0.401572,174.0,174.003
6154.98,104002,173.346,173.0,-0.275231,173.0,172.994
6096.68,103017,172.279,172.0,-0.188562,172.0,171.989
6199.79,104760,171.531,171.0,-0.518484,171.0,170.996
6069.68,102561,170.317,170.0,-0.330797,170.0,170.003
5987.72,101176,169.191,169.0,-0.12169,169.0,169.003
6086.84,102851,168.441,168.0,-0.450854,168.0,167.999
5962.72,100753,167.229,167.0,-0.292574,167.0,166.996
6017.84,101685,166.405,166.0,-0.46097,166.0,166.006
5980.37,101051,165.359,165.0,-0.460752,165.0,165.009
5925.72,100128,164.279,164.0,-0.206017,164.0,164.006
5892.3,99562.97,163.259,163.0,-0.213289,163.0,162.998
5901.52,99718.7,162.348,162.0,-0.308164,162.0,161.996
5868.5,99160.75,161.316,161.0,-0.339848,161.0,160.999
5816.08,98274.9,160.228,160.0,-0.250697,160.0,159.995
5845.1,98765.29,159.344,159.0,-0.293098,159.0,158.995
5793.49,97893.1,158.255,158.0,-0.256257,158.0,157.999
5821.7,98369.83,157.333,157.0,-0.341718,157.0,157.003
5809.7,98167,156.342,156.0,-0.272485,156.0,155.998
5759.31,97315.4,155.233,155.0,-0.232471,155.0,155.005
5730.95,96836.2,154.19,154.0,-0.18943,154.0,154
5737.12,96940.4,153.249,153.0,-0.251548,153.0,152.996
5763.3,97382.9,152.334,152.0,-0.347472,152.0,152.002
5660.67,95648.4,151.128,151.0,-0.23417,151.0,151.001
5740.3,96994.2,150.394,150.0,-0.577644,150.0,150.005
5675.9,95905.8,149.225,149.0,-0.474178,149.0,149.002
5681.15,95994.6,148.247,148.0,-0.565807,148.0,148.005
5654.08,95537.1,147.232,147.0,-0.418781,147.0,147.007
5608.08,94759.7,146.145,146.0,-0.295812,146.0,146.004
5632.67,95175.3,145.293,145.0,-0.510011,145.0,145.005
5573.85,94181.2,144.231,144.0,-0.439555,144.0,143.999
5483.98,92662.4,143.117,143.0,-0.296388,143.0,142.999
5509.71,93097.3,142.278,142.0,-0.52976,142.0,142.005
5415.75,91509.34,141.117,141.0,-0.366417,141.0,140.996
5375.625,90831.2,140.109,140.0,-0.351291,140.0,139.992
5402.31,91282.1,139.263,139.0,-0.546348,139.0,139.004
5318.69,89868.9,138.112,138.0,-0.386402,138.0,138.001
5350.86,90412.7,137.243,137.0,-0.512503,137.0,137.001
5344.86,90311.3,136.159,136.0,-0.524403,136.0,136.002
5338.86,90209.9,135.136,135.0,-0.545527,135.0,134.998
5332.86,90108.5,134.151,134.0,-0.620609,134.0,133.997
5291.84,89415.1,133.1,133.0,-0.557835,133.0,132.994
5286.84,89330.6,132.152,132.0,-0.660009,132.0,131.993
5219.7,88196.1,131.028,131.0,-0.560395,131.0,131.003
5245.44,88631.1,130.111,130.0,-0.615654,130.0,130.007
5241.44,88563.5,129.101,129.0,-0.690813,129.0,129.002
5207.04,87982.1,128.062,128.0,-0.655867,128.0,127.996
5233.91,88436.2,127.158,127.0,-0.791759,127.0,126.998
5229.91,88368.6,126.037,126.0,-0.712527,126.0,125.997
5255.61,88802.9,125.091,125.0,-0.756759,125.0,124.991
5250.61,88718.4,124.046,124.0,-0.724352,124.0,123.992
5275.14,89132.9,123.121,123.0,-0.776943,123.0,122.994
5240.15,88541.6,122.086,122.0,-0.711531,122.0,122.001
5180.78,87538.3,120.959,121.0,-0.592088,121.0,121
5177.78,87487.6,120.063,120.0,-0.711269,120.0,119.997
5149.81,87015,119.025,119.0,-0.704511,119.0,119.003
5146.49,86958.7,118.061,118.0,-0.756251,118.0,117.997
5100.0,86173.1,116.996,117.0,-0.684429,117.0,116.994
5100.0,86173.1,116.107,116.0,-0.760302,116.0,115.997
5038.92,85140.8,114.953,115.0,-0.662906,115.0,115.004
5043.51,85218.4,114.011,114.0,-0.68951,114.0,114.002
5011.29,84673.9,112.972,113.0,-0.648815,113.0,112.998
4999.825,84480.1,112.022,112.0,-0.70553,112.0,112.002
5024.02,84889.1,110.996,111.0,-0.73248,111.0,111.003
5093.73,86067.1,109.998,110.0,-0.809417,110.0,109.998
5146.45,86958,108.992,109.0,-0.809212,109.0,109.004
5215.25,88120.825,107.875,108.0,-0.805129,108.0,108.003
5308.37,89694.6,106.972,107.0,-0.855873,107.0,107.005
5346.9,90345.7,105.948,106.0,-0.824531,106.0,106.005
5375.36,90826.7,104.964,105.0,-0.858652,105.0,105.002
5375.39,90827.1,103.899,104.0,-0.77157,104.0,103.997
5388.43,91047.5,102.936,103.0,-0.777873,103.0,102.993
5399.11,91228,101.955,102.0,-0.759947,102.0,101.994
5415.46,91504.4,100.922,101.0,-0.641938,101.0,100.985
5486.2,92699.88,99.9175,100.0,-0.435491,100.0,99.965
5642.0,95332.9,98.8527,99.0,-0.611329,99.0,98.9885
5439.27,91906.8,97.869,98.0,-0.629321,98.0,98.0102
5237.05,88489.2,96.8489,97.0,-0.600875,97.0,97.0132
5082.67,85880.3,95.8403,96.0,-0.596966,96.0,96.003
4949.4,83627.96,94.8468,95.0,-0.602874,95.0,94.9986
4829.64,81604,93.825,94.0,-0.585943,94.0,93.9919
4738.97,80071.7,92.8205,93.0,-0.575855,93.0,92.9788
4655.41,78659.5,91.775,92.0,-0.565299,92.0,91.9336
4617.5,78018.85,91.2576,91.0,-0.528191,91.0,91.4192