File: i_data/0.10Kmin/27Sep/H2O-NH3_2.84wt%.csv
H2O-NH3 3.52wt% Specific Heat - Large HF,,,,
Creation Date : 9/6/2022 9:53:12 AM,,,,
User : admin,,,,
,,,,
HeatFlow :,,,,
 Initial Mass : 4840.2 mg,,,,
 Molar Mass : 17 g/mol,,,,
,,,,
Index,Time(s),Furnace Temperature(K),Sample Temperature(K),HeatFlow(mW)
1,0,299.606,299.629,335.999
13,202.8,299.614,299.637,174.134
25,405.6,299.621,299.641,90.4149
37,608.4,299.627,299.642,46.9196
49,811.2,299.626,299.644,24.2708
61,1014,299.609,299.644,12.4655
73,1216.8,299.564,299.642,6.341996
85,1419.6,299.473,299.634,3.257737
97,1622.4,299.321,299.617,1.874129
109,1825.2,299.093,299.586,1.547881
121,2028,298.778,299.537,1.988415
133,2230.8,298.366,299.461,3.087393
145,2433.6,297.845,299.355,4.809751
157,2636.4,297.198,299.21,7.159146
169,2839.2,296.403,299.017,10.1712
181,3042,295.448,298.7678,13.9207
193,3244.8,294.334,298.455,18.4937
205,3447.6,293.087,298.071,23.9428
217,3650.4,291.743,297.612,30.155
229,3853.2,290.329,297.077,36.9654
241,4056,288.868,296.468,44.1762
253,4258.8,287.38,295.789,51.5604
265,4461.6,285.877,295.043,58.9462
277,4664.4,284.366,294.236,66.1397
289,4867.2,282.858,293.376,72.9829
301,5070,281.359,292.472,79.2236
313,5272.8,279.872,291.523,84.8297
325,5475.6,278.406,290.528,90.1648
337,5678.4,276.962,289.493,95.1887
349,5881.2,275.544,288.427,99.7856
361,6084,274.147,287.335,103.892
373,6286.8,272.773,286.22,107.465
385,6489.6,271.418,285.087,110.532
397,6692.4,270.077,283.939,113.114
409,6895.2,268.756,282.778,115.301
421,7098,267.454,281.608,117.119
433,7300.8,266.165,280.43,118.649
445,7503.6,264.883,279.245,119.885
457,7706.4,263.606,278.056,120.901
469,7909.2,262.336,276.862,121.781
481,8112,261.075,275.666,122.491
493,8314.8,259.828,274.467,123.124
505,8517.6,258.602,273.268,123.664
517,8720.4,257.4,272.071,124
529,8923.2,256.22,270.877,124.184
541,9126,255.059,269.689,124.295
553,9328.8,253.913,268.505,124.218
565,9531.6,252.779,267.326,123.97
577,9734.4,251.657,266.156,123.792
589,9937.2,250.547,264.991,123.393
601,10140,249.448,263.834,122.891
613,10342.8,248.358,262.686,122.533
625,10545.6,247.272,261.543,121.827
637,10748.4,246.19,260.408,121.267
649,10951.2,245.115,259.281,120.763
661,11154,244.054,258.159,120.224
673,11356.8,243.006,257.045,119.953
685,11559.6,241.965,255.962,1280.35
697,11762.4,240.938,254.908,1312.03
709,11965.2,239.926,253.85,1130.34
721,12168,238.928,252.79,846.775
733,12370.8,237.936,251.728,585.819
745,12573.6,236.949,250.665,400.837
757,12776.4,235.968,249.607,283.034
769,12979.2,234.995,248.554,211.056
781,13182,234.031,247.509,167.494
793,13384.8,233.067,246.47,140.921
805,13587.6,232.102,245.439,123.741
817,13790.4,231.14,244.4142,112.453
829,13993.2,230.19,243.396,104.618
841,14196,229.254,242.386,98.33454
853,14398.8,228.33,241.384,93.5416
865,14601.6,227.412,240.39,89.1413
877,14804.4,226.501,239.404,85.6448
889,15007.2,225.602,238.424,82.2502
901,15210,224.715,237.455,79.6856
913,15412.8,223.832,236.493,77.1896
925,15615.6,222.949,235.539,74.45583
937,15818.4,222.071,234.591,72.3312
949,16021.2,221.205,233.651,69.8369
961,16224,220.35,232.719,67.6973
973,16426.8,219.507,231.794,66.2971
985,16629.6,218.677,230.878,64.4366
997,16832.4,217.854,229.971,62.8957
1009,17035.2,217.041,229.071,61.68441
1021,17238,216.234,228.1789,59.7161
1033,17440.8,215.434,227.295,58.8703
1045,17643.6,214.637,226.419,57.1395
1057,17846.4,213.843,225.55,56.0233
1069,18049.2,213.053,224.688,54.8837
1081,18252,212.27,223.834,52.7833
1093,18454.8,211.489,222.987,51.6136
1105,18657.6,210.713,222.145,50.147
1117,18860.4,209.942,221.309,48.9621
1129,19063.2,209.178,220.48,47.9185
1141,19266,208.422,219.658,47.6542
1153,19468.8,207.672,218.842,46.5995
1165,19671.6,206.927,218.032,45.4762
1177,19874.4,206.176,217.228,44.5411
1189,20077.2,205.411,216.429,44.2822
1201,20280,204.638,215.632,43.2537
1213,20482.8,203.868,214.84,42.6392
1225,20685.6,203.106,214.05,42.2046
1237,20888.4,202.351,213.264,41.65736
1249,21091.2,201.605,212.479,40.8785
1261,21294,200.864,211.701,40.3934
1273,21496.8,200.122,210.926,39.7573
1285,21699.6,199.388,210.155,39.1502
1297,21902.4,198.672,209.387,38.889
1309,22105.2,197.974,208.626,38.5358
1321,22308,197.28,207.871,37.8994
1333,22510.8,196.585,207.12,37.1699
1345,22713.6,195.89,206.375,36.3626
1357,22916.4,195.2,205.635,35.9026
1369,23119.2,194.512,204.9,35.7197
1381,23322,193.831,204.169,34.9867
1393,23524.8,193.165,203.443,34.39016
1405,23727.6,192.507,202.723,33.8883
1417,23930.4,191.854,202.008,33.3306
1429,24133.2,191.204,201.299,33.2039
1441,24336,190.549,200.593,33.1018
1453,24538.8,189.897,199.894,32.6647
1465,24741.6,189.248,199.199,32.158
1477,24944.4,188.608,198.507,31.7751
1489,25147.2,187.974,197.821,31.3108
1501,25350,187.347,197.14,30.9227
1513,25552.8,186.732,196.462,30.6027
1525,25755.6,186.131,195.792,30.4345
1537,25958.4,185.539,195.127,29.8547
1549,26161.2,184.946,194.469,29.4497
1561,26364,184.338,193.813,28.9829
1573,26566.8,183.722,193.164,28.6739
1585,26769.6,183.106,192.516,28.4881
1597,26972.4,182.5,191.871,28.3256
1609,27175.2,181.905,191.231,27.8292
1621,27378,181.32,190.594,27.0868
1633,27580.8,180.741,189.963,26.9832
1645,27783.6,180.176,189.336,26.3231
1657,27986.4,179.632,188.715,26.1666
1669,28189.2,179.1,188.1,26.0833
1681,28392,178.563,187.49,25.5681
1693,28594.8,178.02,186.888,25.3674
1705,28797.6,177.48,186.288,24.86131
1717,29000.4,176.948,185.695,24.7102
1729,29203.2,176.424,185.106,24.387
1741,29406,175.892,184.522,24.4685
1753,29608.8,175.347,183.942,23.9991
1765,29811.6,174.797,183.363,23.6644
1777,30014.4,174.249,182.789,23.1744
1789,30217.2,173.713,182.217,22.9655
1801,30420,173.194,181.648,23.20322
1813,30622.8,172.686,181.084,22.4692
1825,30825.6,172.171,180.523,22.3912
1837,31028.4,171.648,179.966,22.2525
1849,31231.2,171.125,179.413,22.1165
1861,31434,170.608,178.861,21.7083
1873,31636.8,170.101,178.313,21.7306
1885,31839.6,169.602,177.768,21.4826
1897,32042.4,169.101,177.227,21.37198
1909,32245.2,168.601,176.69,21.3976
1921,32448,168.107,176.154,21.2088
1933,32650.8,167.63,175.623,20.9306
1945,32853.6,167.173,175.097,20.4531
1957,33056.4,166.714,174.576,20.3414
1969,33259.2,166.2396,174.06,20.2437
1981,33462,165.751,173.545,20.0737
1993,33664.8,165.261,173.033,19.9129
2005,33867.6,164.779,172.522,19.47384
2017,34070.4,164.313,172.014,19.373
2029,34273.2,163.86,171.511,19.3369
2041,34476,163.41,171.012,19.0126
2053,34678.8,162.948,170.515,18.9202
2065,34881.6,162.479,170.021,18.9024
2077,35084.4,162.017,169.529,18.7269
2089,35287.2,161.563,169.04,18.4362
2101,35490,161.122,168.554,18.41596
2113,35692.8,160.679,168.072,18.0215
2125,35895.6,160.231,167.592,18.0029
2137,36098.4,159.784,167.114,18.05758
2149,36301.2,159.349,166.639,17.9022
2161,36504,158.925,166.168,17.7121
2173,36706.8,158.502,165.701,17.4867
2185,36909.6,158.066,165.236,17.6738
2197,37112.4,157.624,164.773,17.2225
2209,37315.2,157.185,164.312,17.3478
2221,37518,156.759,163.853,17.2459
2233,37720.8,156.347,163.397,17.036
2245,37923.6,155.942,162.944,17.1035
2257,38126.4,155.538,162.495,16.976
2269,38329.2,155.13,162.049,16.8155
2281,38532,154.709,161.606,16.534
2293,38734.8,154.276,161.163,16.3727
2305,38937.6,153.843,160.722,16.2811
2317,39140.4,153.423,160.282,15.9774
2329,39343.2,153.02,159.843,15.86
2341,39546,152.633,159.408,16.0703
2353,39748.8,152.249,158.977,16.3135
2365,39951.6,151.866,158.55,15.93813
2377,40154.4,151.483,158.125,15.5321
2389,40357.2,151.106,157.703,15.2224
2401,40560,150.742,157.284,15.1883
2413,40762.8,150.393,156.87,15.23326
2425,40965.6,150.048,156.461,15.0176
2437,41168.4,149.701,156.056,14.6675
2449,41371.2,149.352,155.656,14.2519
2461,41574,148.996,155.257,14.0967
2473,41776.8,148.643,154.862,14.1267
2485,41979.6,148.305,154.471,14.0215
2497,42182.4,147.985,154.083,14.164
2509,42385.2,147.661,153.7,13.9752
2521,42588,147.328,153.32,13.555
2533,42790.8,146.989,152.944,13.4663
2545,42993.6,146.652,152.57,13.2712
2557,43196.4,146.316,152.198,13.1832
2569,43399.2,145.972,151.829,13.1969
2581,43602,145.626,151.461,12.98212
2593,43804.8,145.282,151.095,12.6992
2605,44007.6,144.93,150.73,12.6908
2617,44210.4,144.565,150.366,12.5319
2629,44413.2,144.198,150.003,12.4184
2641,44616,143.841,149.638,12.7125
2653,44818.8,143.504,149.276,12.6181
2665,45021.6,143.185,148.916,12.348
2677,45224.4,142.875,148.559,12.5179
2689,45427.2,142.572,148.205,12.04331
2701,45630,142.279,147.855,12.0279
2713,45832.8,141.991,147.509,11.7297
2725,46035.6,141.697,147.166,11.8118
2737,46238.4,141.403,146.827,11.8746
2749,46441.2,141.123,146.491,11.4697
2761,46644,140.86,146.159,11.3632
2773,46846.8,140.596,145.832,11.1759
2785,47049.6,140.318,145.508,10.9683
2797,47252.4,140.031,145.187,10.7058
2809,47455.2,139.736,144.867,10.7212
2821,47658,139.429,144.55,10.6547
2833,47860.8,139.117,144.231,10.5497
2845,48063.6,138.81,143.915,10.664
2857,48266.4,138.518,143.6,10.5662
2869,48469.2,138.247,143.287,10.6745
2881,48672,137.988,142.977,10.4001
2893,48874.8,137.742,142.67,10.3158
2905,49077.6,137.498,142.368,10.055
2917,49280.4,137.238,142.069,9.976781
2929,49483.2,136.956,141.771,9.820172
2941,49686,136.665,141.474,9.742577
2953,49888.8,136.374,141.177,9.766873
2965,50091.6,136.097,140.882,9.671684
2977,50294.4,135.827,140.5875,9.706452
2989,50497.2,135.547,140.295,9.661566
3001,50700,135.255,140.003,9.709521
3013,50902.8,134.963,139.711,9.667402
3025,51105.6,134.679,139.419,9.571282
3037,51308.4,134.411,139.128,9.476381
3049,51511.2,134.156,138.84,9.48115
3061,51714,133.896,138.552,9.303995
3073,51916.8,133.629,138.267,9.210651
3085,52119.6,133.365,137.983,9.115205
3097,52322.4,133.111,137.701,9.132036
3109,52525.2,132.87,137.42,9.211944
3121,52728,132.627,137.143,9.081179
3133,52930.8,132.377,136.867,9.014811
3145,53133.6,132.124,136.593,8.972918
3157,53336.4,131.864,136.32,8.711965
3169,53539.2,131.597,136.048,8.767842
3181,53742,131.325,135.775,8.636355
3193,53944.8,131.048,135.503,8.631742
3205,54147.6,130.768,135.23,8.73286
3217,54350.4,130.484,134.956,8.687584
3229,54553.2,130.202,134.683,8.612709
3241,54756,129.921,134.409,8.641428
3253,54958.8,129.641,134.135,8.577252
3265,55161.6,129.36,133.86,8.590368
3277,55364.4,129.082,133.586,8.509685
3289,55567.2,128.803,133.31,8.611403
3301,55770,128.53,133.036,8.620388
3313,55972.8,128.266,132.76,8.496487
3325,56175.6,128.008,132.487,8.44154
3337,56378.4,127.756,132.214,8.410943
3349,56581.2,127.519,131.943,8.36126
3361,56784,127.303,131.676,8.351851
3373,56986.8,127.095,131.411,8.356606
3385,57189.6,126.878,131.15,8.22683
3397,57392.4,126.653,130.891,8.115538
3409,57595.2,126.43,130.635,7.8921
3421,57798,126.219,130.381,7.738437
3433,58000.8,126.024,130.129,7.667366
3445,58203.6,125.845,129.883,7.560128
3457,58406.4,125.66,129.64,7.469922
3469,58609.2,125.461,129.4,7.305165
3481,58812,125.258,129.162,7.137948
3493,59014.8,125.06,128.927,7.013247
3505,59217.6,124.874,128.695,6.987915
3517,59420.4,124.699,128.466,6.892774
3529,59623.2,124.514,128.24,6.765789
3541,59826,124.314,128.015,6.584617
3553,60028.8,124.11,127.793,6.530858
3565,60231.6,123.912,127.572,6.48191
3577,60434.4,123.727,127.353,6.523665
3589,60637.2,123.554,127.135,6.33791
3601,60840,123.376,126.921,6.329408
3613,61042.8,123.19,126.708,6.166431
3625,61245.6,123.003,126.497,6.121339
3637,61448.4,122.824,126.288,6.069692
3649,61651.2,122.657,126.081,6.043516
3661,61854,122.488,125.877,5.918477
3673,62056.8,122.307,125.674,5.880734
3685,62259.6,122.119,125.473,5.76014
3697,62462.4,121.934,125.272,5.776481
3709,62665.2,121.761,125.073,5.695036
3721,62868,121.609,124.876,5.605737
3733,63070.8,121.467,124.683,5.532408
3745,63273.6,121.322,124.491,5.503708
3757,63476.4,121.173,124.303,5.417514
3769,63679.2,121.032,124.118,5.321993
3781,63882,120.905,123.936,5.154833
3793,64084.8,120.783,123.757,5.082938
3805,64287.6,120.652,123.581,4.928007
3817,64490.4,120.5082,123.408,4.884239
3829,64693.2,120.345,123.236,4.830115
3841,64896,120.16,123.063,4.759088
3853,65098.8,119.951,122.89,4.747493
3865,65301.6,119.721,122.714,4.818363
3877,65504.4,119.47,122.533,4.82074
3889,65707.2,119.202,122.347,4.919017
3901,65910,118.91,122.157,5.012842
3913,66112.8,118.523,121.955,5.144782
3925,66315.6,117.921,121.734,5.53515
3937,66518.4,117.149,121.483,6.182409
3949,66721.2,116.237,121.196,6.976183
3961,66924,115.211,120.869,7.935919
3973,67126.8,114.121,120.5,9.036974
3985,67329.6,112.991,120.091,10.1315
3997,67532.4,111.851,119.64,11.3104
4009,67735.2,110.732,119.151,12.5045
4021,67938,109.645,118.624,13.544
4033,68140.8,108.599,118.064,14.4026
4045,68343.6,107.622,117.475,14.9627
4057,68546.4,106.733,116.863,15.8689
4069,68749.2,105.908,116.237,16.716
4081,68952,105.156,115.599,16.9354
4093,69154.8,104.467,114.955,16.9281
4105,69357.6,103.823,114.308,17.1159
4117,69560.4,103.233,113.663,16.8903
4129,69763.2,102.686,113.022,16.8482
4141,69966,102.174,112.386,16.50905
4153,70168.8,101.698,111.759,16.291
4165,70371.6,101.256,111.14,16.1961
4177,70574.4,100.85,110.533,15.8222
4189,70777.2,100.472,109.94,15.4658
4201,70980,100.123,109.359,14.9318
4213,71182.8,99.8061,108.792,14.6211
4225,71385.6,99.5165,108.241,14.2665
4237,71588.4,99.2536,107.706,13.8355
4249,71791.2,99.0194,107.188,13.25675
4261,71994,98.8182,106.689,12.7557
4273,72196.8,98.6473,106.206,12.13939
4285,72399.6,98.499,105.743,11.6174
4297,72602.4,98.3695,105.299,11.1101
4309,72805.2,98.25611,104.874,10.65759
4321,73008,98.1555,104.469,10.3202
4333,73210.8,98.0648,104.082,9.839743
4345,73413.6,97.9833,103.714,9.2122
4357,73616.4,97.9119,103.362,8.79924
4369,73819.2,97.8471,103.028,8.1773
4381,74022,97.7879,102.711,7.716174
4393,74224.8,97.7347,102.409,7.352113
4405,74427.6,97.689,102.123,6.964868
4417,74630.4,97.64913,101.852,6.575687
4429,74833.2,97.6165,101.597,6.203263
4441,75036,97.5884,101.354,5.8167
4453,75238.8,97.5641,101.127,5.474927
4465,75441.6,97.544,100.911,5.087274
4477,75644.4,97.5318,100.708,4.775689
4489,75847.2,97.5283,100.518,4.476326
4501,76050,97.5353,100.34,4.126234
4513,76252.8,97.5534,100.173,3.84131
4525,76455.6,97.5836,100.02,3.506746
4537,76658.4,97.624,99.8781,3.191199
4549,76861.2,97.6766,99.7482,2.903628
4561,77064,97.74259,99.6306,2.592874
4573,77266.8,97.818,99.5248,2.298169
4585,77469.6,97.8971,99.4309,2.004764
4597,77672.4,97.9765,99.3477,1.734764
4609,77875.2,98.0552,99.2757,1.468307
4621,78078,98.1314,99.2122,1.229558
4633,78280.8,98.20481,99.1582,0.999963
4645,78483.6,98.2755,99.1106,0.784357
4657,78686.4,98.3438,99.07128,0.585157
4669,78889.2,98.4117,99.03826,0.399376
4681,79092,98.4786,99.0115,0.230788
4693,79294.8,98.54679,98.991,0.076038
4705,79497.6,98.61405,98.9757,-0.06756
4717,79700.4,98.681,98.9658,-0.195228
4729,79903.2,98.7461,98.9601,-0.319171
4741,80106,98.8066,98.95896,-0.441071
4753,80308.8,98.8599,98.9607,-0.561602
4765,80511.6,98.9057,98.9659,-0.644082
4777,80714.4,98.9492,98.9732,-0.717375
4789,80917.2,99.0025,98.9838,-0.7757
4801,81120,99.0788,98.9961,-0.851314
4813,81322.8,99.1702,99.0146,-0.933989
4825,81525.6,99.2631,99.0366,-1.056988
4837,81728.4,99.3535,99.0633,-1.144272
4849,81931.2,99.4394,99.0938,-1.25827
4861,82134,99.5222,99.1277,-1.352504
4873,82336.8,99.59931,99.1645,-1.425633
4885,82539.6,99.6733,99.2027,-1.503442
4897,82742.4,99.7436,99.2429,-1.557463
4909,82945.2,99.8106,99.2858,-1.621229
4921,83148,99.876,99.3298,-1.655148
4933,83350.8,99.93743,99.3753,-1.708304
4945,83553.6,99.9988,99.4212,-1.730638
4957,83756.4,100.058,99.46842,-1.755977
4969,83959.2,100.116,99.5159,-1.781967
4981,84162,100.171,99.5649,-1.795753
4993,84364.8,100.226,99.61376,-1.805141
5005,84567.6,100.28,99.6632,-1.818562
5017,84770.4,100.334,99.7118,-1.839407
5029,84973.2,100.389,99.76142,-1.834926
5041,85176,100.442,99.8118,-1.857069
5053,85378.8,100.495,99.8615,-1.865387
5065,85581.6,100.5474,99.912,-1.859205
5077,85784.4,100.6,99.9623,-1.860774
5089,85987.2,100.651,100.013,-1.86402
5101,86190,100.701,100.063,-1.882076
5113,86392.8,100.752,100.113,-1.872532
5125,86595.6,100.802,100.164,-1.873411
5137,86798.4,100.851,100.214,-1.869936
5149,87001.2,100.902,100.265,-1.865117
5161,87204,100.952,100.315,-1.882794
5173,87406.8,101.005,100.365,-1.881331
5185,87609.6,101.058,100.4159,-1.872817
5197,87812.4,101.111,100.466,-1.887117
5209,88015.2,101.166,100.517,-1.879607
5221,88218,101.221,100.568,-1.889864
5233,88420.8,101.277,100.62,-1.893397
5245,88623.6,101.334,100.671,-1.898276
5257,88826.4,101.39,100.723,-1.908827
5269,89029.2,101.446,100.776,-1.921033
5281,89232,101.502,100.828,-1.924211
5293,89434.8,101.557,100.88,-1.9374
5305,89637.6,101.612,100.933,-1.941901
5317,89840.4,101.666,100.986,-1.939703
5329,90043.2,101.72,101.039,-1.948863
5341,90246,101.774,101.092,-1.941671
5353,90448.8,101.826,101.145,-1.948821
5365,90651.6,101.878,101.198,-1.949966
5377,90854.4,101.93,101.25,-1.943789
5389,91057.2,101.979,101.303,-1.943601
5401,91260,102.03,101.355,-1.948754
5413,91462.8,102.08,101.407,-1.932947
5425,91665.6,102.129,101.46,-1.944411
5437,91868.4,102.177,101.512,-1.929286
5449,92071.2,102.224,101.564,-1.925801
5461,92274,102.27,101.615,-1.919344
5473,92476.8,102.315,101.666,-1.910911
5485,92679.6,102.358,101.716,-1.910116
5497,92882.4,102.401,101.767,-1.891414
5509,93085.2,102.442,101.816,-1.885353
5521,93288,102.483,101.865,-1.875642
5533,93490.8,102.521,101.913,-1.856018
5545,93693.6,102.558,101.961,-1.838734
5557,93896.4,102.593,102.007,-1.81818
5569,94099.2,102.627,102.054,-1.812183
5581,94302,102.661,102.1,-1.779092
5593,94504.8,102.691,102.144,-1.768195
5605,94707.6,102.722,102.188,-1.750704
5617,94910.4,102.758,102.232,-1.733234
5629,95113.2,102.795,102.274,-1.709848
5641,95316,102.834,102.317,-1.705611
5653,95518.8,102.87,102.359,-1.691829
5665,95721.6,102.9,102.4,-1.683671
5677,95924.4,102.931,102.441,-1.667607
5689,96127.2,102.964,102.482,-1.649254
5701,96330,102.997,102.522,-1.639486
5713,96532.8,103.027,102.561,-1.633354
5725,96735.6,103.054,102.6,-1.617358
5737,96938.4,103.078,102.638,-1.594139
5749,97141.2,103.106,102.675,-1.57259
5761,97344,103.134,102.712,-1.555008
5773,97546.8,103.16,102.748,-1.547315
5785,97749.6,103.18,102.784,-1.524501
5797,97952.4,103.196,102.818,-1.520462
5809,98155.2,103.211,102.851,-1.472387
5821,98358,103.228,102.883,-1.464778
5833,98560.8,103.246,102.913,-1.427286
5845,98763.6,103.26,102.945,-1.39703
5857,98966.4,103.271,102.974,-1.392107
5869,99169.2,103.283,103.002,-1.349438
5881,99372,103.297,103.029,-1.336671
5893,99574.8,103.312,103.055,-1.30061
5905,99777.6,103.326,103.081,-1.286559
5917,99980.4,103.336,103.106,-1.266948
5929,100183.2,103.349,103.13,-1.249315
5941,100386,103.369,103.153,-1.227436
5953,100588.8,103.391,103.177,-1.212779
5965,100791.6,103.408,103.2,-1.199109
5977,100994.4,103.423,103.223,-1.192663
5989,101197.2,103.44,103.245,-1.18065
6001,101400,103.461,103.267,-1.174872
6013,101602.8,103.482,103.289,-1.170734
6025,101805.6,103.494,103.311,-1.169873
6037,102008.4,103.492,103.331,-1.152652
6049,102211.2,103.48,103.351,-1.126606
6061,102414,103.468,103.368,-1.097644
6073,102616.8,103.617,103.386,-1.07163
6085,102819.6,104.124,103.419,-1.222525
6097,103022.4,104.689,103.48,-1.636968
6109,103225.2,105.146,103.569,-2.203181
6121,103428,105.515,103.679,-2.772366
6133,103630.8,105.847,103.803,-3.269718
6145,103833.6,106.175,103.94,-3.692383
6157,104036.4,106.513,104.088,-4.070777
6169,104239.2,106.855,104.248,-4.380909
6181,104442,107.194,104.419,-4.705417
6193,104644.8,107.532,104.6,-4.993659
6205,104847.6,107.872,104.791,-5.269984
6217,105050.4,108.214,104.99,-5.525749
6229,105253.2,108.554,105.199,-5.778643
6241,105456,108.894,105.416,-5.99881
6253,105658.8,109.23,105.641,-6.215906
6265,105861.6,109.564,105.871,-6.425896
6277,106064.4,109.902,106.107,-6.599884
6289,106267.2,110.244,106.351,-6.790494
6301,106470,110.584,106.599,-6.958112
6313,106672.8,110.918,106.853,-7.10952
6325,106875.6,111.253,107.111,-7.26519
6337,107078.4,111.593,107.373,-7.398156
6349,107281.2,111.939,107.641,-7.530314
6361,107484,112.289,107.912,-7.673389
6373,107686.8,112.628,108.19,-7.809575
6385,107889.6,112.961,108.47,-7.928677
6397,108092.4,113.295,108.754,-8.046777
6409,108295.2,113.631,109.042,-8.15354
6421,108498,113.97,109.331,-8.265078
6433,108700.8,114.302,109.623,-8.342591
6445,108903.6,114.631,109.917,-8.412877
6457,109106.4,114.966,110.212,-8.481231
6469,109309.2,115.307,110.51,-8.551007
6481,109512,115.653,110.809,-8.621029
6493,109714.8,116,111.111,-8.699534
6505,109917.6,116.342,111.417,-8.778773
6517,110120.4,116.678,111.724,-8.868318
6529,110323.2,117.01,112.032,-8.930766
6541,110526,117.348,112.342,-8.99775
6553,110728.8,117.693,112.653,-9.046708
6565,110931.6,118.037,112.966,-9.117256
6577,111134.4,118.374,113.282,-9.190138
6589,111337.2,118.711,113.598,-9.251139
6601,111540,119.042,113.915,-9.304618
6613,111742.8,119.37,114.233,-9.343002
6625,111945.6,119.703,114.551,-9.379161
6637,112148.4,120.044,114.869,-9.4284
6649,112351.2,120.389,115.189,-9.466281
6661,112554,120.735,115.51,-9.522472
6673,112756.8,121.076,115.832,-9.58672
6685,112959.6,121.415,116.155,-9.64654
6697,113162.4,121.752,116.479,-9.700104
6709,113365.2,122.083,116.804,-9.773274
6721,113568,122.413,117.128,-9.841456
6733,113770.8,122.748,117.453,-9.892245
6745,113973.6,123.09,117.778,-9.943115
6757,114176.4,123.435,118.103,-10.0161
6769,114379.2,123.783,118.43,-10.10251
6781,114582,124.124,118.758,-10.2098
6793,114784.8,124.453,119.087,-10.32021
6805,114987.6,124.783,119.415,-10.4182
6817,115190.4,125.119,119.743,-10.5182
6829,115393.2,125.462,120.07,-10.6451
6841,115596,125.806,120.399,-10.7509
6853,115798.8,126.145,120.73,-10.8844
6865,116001.6,126.482,121.061,-11.0085
6877,116204.4,126.82,121.391,-11.0811
6889,116407.2,127.158,121.721,-11.1412
6901,116610,127.49,122.053,-11.1795
6913,116812.8,127.82,122.383,-11.169
6925,117015.6,128.154,122.712,-11.1337
6937,117218.4,128.496,123.042,-11.0887
6949,117421.2,128.841,123.372,-11.0719
6961,117624,129.184,123.703,-11.0603
6973,117826.8,129.525,124.036,-11.0765
6985,118029.6,129.863,124.368,-11.1022
6997,118232.4,130.205,124.7,-11.1321
7009,118435.2,130.547,125.033,-11.1677
7021,118638,130.881,125.367,-11.1942
7033,118840.8,131.213,125.7,-11.2165
7045,119043.6,131.548,126.034,-11.2479
7057,119246.4,131.887,126.368,-11.262
7069,119449.2,132.219,126.702,-11.2729
7081,119652,132.555,127.035,-11.289
7093,119854.8,132.893,127.367,-11.2989
7105,120057.6,133.236,127.699,-11.3152
7117,120260.4,133.581,128.033,-11.3308
7129,120463.2,133.924,128.367,-11.3569
7141,120666,134.262,128.702,-11.3864
7153,120868.8,134.598,129.037,-11.4252
7165,121071.6,134.932,129.371,-11.4532
7177,121274.4,135.2638,129.707,-11.4568
7189,121477.2,135.596,130.04,-11.4656
7201,121680,135.93,130.374,-11.474
7213,121882.8,136.267,130.706,-11.4751
7225,122085.6,136.61,131.039,-11.4705
7237,122288.4,136.958,131.372,-11.4936
7249,122491.2,137.304,131.707,-11.5111
7261,122694,137.641,132.041,-11.5429
7273,122896.8,137.976,132.376,-11.5773
7285,123099.6,138.311,132.712,-11.5949
7297,123302.4,138.647,133.046,-11.6074
7309,123505.2,138.987,133.38,-11.6334
7321,123708,139.325,133.715,-11.6541
7333,123910.8,139.656,134.05,-11.6609
7345,124113.6,139.989,134.384,-11.662
7357,124316.4,140.328,134.718,-11.6607
7369,124519.2,140.67,135.051,-11.6712
7381,124722,141.015,135.385,-11.692
7393,124924.8,141.355,135.721,-11.7186
7405,125127.6,141.688,136.055,-11.7446
7417,125330.4,142.022,136.39,-11.7546
7429,125533.2,142.361,136.724,-11.7695
7441,125736,142.706,137.058,-11.7809
7453,125938.8,143.051,137.393,-11.8092
7465,126141.6,143.39,137.73,-11.8439
7477,126344.4,143.722,138.066,-11.8734
7489,126547.2,144.054,138.402,-11.8781
7501,126750,144.386,138.737,-11.8982
7513,126952.8,144.72,139.072,-11.9068
7525,127155.6,145.059,139.406,-11.9088
7537,127358.4,145.404,139.74,-11.9214
7549,127561.2,145.747,140.075,-11.9285
7561,127764,146.091,140.41,-11.9464
7573,127966.8,146.433,140.747,-11.9782
7585,128169.6,146.767,141.083,-12.0155
7597,128372.4,147.094,141.42,-12.0412
7609,128575.2,147.427,141.756,-12.03459
7621,128778,147.766,142.091,-12.0315
7633,128980.8,148.108,142.427,-12.037
7645,129183.6,148.451,142.763,-12.0462
7657,129386.4,148.79,143.099,-12.0583
7669,129589.2,149.123,143.436,-12.0641
7681,129792,149.458,143.771,-12.051
7693,129994.8,149.799,144.107,-12.0349
7705,130197.6,150.143,144.444,-12.007
7717,130400.4,150.484,144.78,-11.9857
7729,130603.2,150.819,145.117,-11.95
7741,130806,151.151,145.455,-11.89779
7753,131008.8,151.49,145.791,-11.809
7765,131211.6,151.833,146.128,-11.723
7777,131414.4,152.175,146.466,-11.5813
7789,131617.2,152.513,146.804,-11.43606
7801,131820,152.846,147.142,-11.253
7813,132022.8,153.179,147.48,-11.0264
7825,132225.6,153.512,147.817,-10.7277
7837,132428.4,153.852,148.155,-10.3801
7849,132631.2,154.194,148.492,-9.954964
7861,132834,154.541,148.83,-9.470078
7873,133036.8,154.879,149.167,-8.902632
7885,133239.6,155.213,149.507,-8.225056
7897,133442.4,155.547,149.845,-7.392503
7909,133645.2,155.879,150.183,-6.395578
7921,133848,156.213,150.52,-5.219349
7933,134050.8,156.552,150.858,-3.850411
7945,134253.6,156.895,151.195,-2.269395
7957,134456.4,157.239,151.533,-0.51093
7969,134659.2,157.584,151.871,1.366381
7981,134862,157.925,152.211,3.315987
7993,135064.8,158.262,152.55,5.187651
8005,135267.6,158.592,152.89,6.848562
8017,135470.4,158.921,153.229,8.109065
8029,135673.2,159.256,153.567,8.749529
8041,135876,159.598,153.905,8.542582
8053,136078.8,159.942,154.243,7.362569
8065,136281.6,160.282,154.582,5.196542
8077,136484.4,160.616,154.921,2.293255
8089,136687.2,160.953,155.258,-0.928031
8101,136890,161.293,155.596,-3.953955
8113,137092.8,161.637,155.934,-6.426881
8125,137295.6,161.978,156.273,-8.178156
8137,137498.4,162.314,156.611,-9.349418
8149,137701.2,162.648,156.95,-10.0352
8161,137904,162.986,157.289,-10.4
8173,138106.8,163.326,157.628,-10.65511
8185,138309.6,163.665,157.967,-10.8671
8197,138512.4,164,158.307,-11.0249
8209,138715.2,164.336,158.646,-11.1823
8221,138918,164.676,158.984,-11.3325
8233,139120.8,165.015,159.323,-11.4598
8245,139323.6,165.349,159.663,-11.5755
8257,139526.4,165.682,160.002,-11.6671
8269,139729.2,166.02,160.34,-11.7527
8281,139932,166.362,160.679,-11.7776
8293,140134.8,166.705,161.018,-11.8717
8305,140337.6,167.045,161.357,-11.9429
8317,140540.4,167.382,161.696,-11.9576
8329,140743.2,167.72,162.035,-11.995
8341,140946,168.06,162.374,-12.0386
8353,141148.8,168.396,162.714,-12.0767
8365,141351.6,168.732,163.054,-12.1257
8377,141554.4,169.068,163.394,-12.1198
8389,141757.2,169.405,163.733,-12.1436
8401,141960,169.739,164.072,-12.1314
8413,142162.8,170.074,164.411,-12.1275
8425,142365.6,170.412,164.748,-12.1607
8437,142568.4,170.748,165.087,-12.1668
8449,142771.2,171.087,165.424,-12.1989
8461,142974,171.429,165.762,-12.1901
8473,143176.8,171.768,166.1,-12.1993
8485,143379.6,172.106,166.439,-12.2567
8497,143582.4,172.448,166.777,-12.2805
8509,143785.2,172.791,167.115,-12.3153
8521,143988,173.135,167.455,-12.3389
8533,144190.8,173.474,167.794,-12.3582
8545,144393.6,173.81,168.134,-12.4754
8557,144596.4,174.144,168.475,-12.5204
8569,144799.2,174.4746,168.815,-12.6384
8581,145002,174.806,169.154,-12.7606
8593,145204.8,175.143,169.492,-13.0796
8605,145407.6,175.485,169.831,-13.74464
8617,145610.4,175.827,170.17,-14.8449
8629,145813.2,176.17,170.508,-17.5125
8641,146016,176.511,170.848,-23.2203
8653,146218.8,176.845,171.187,-27.7824
8665,146421.6,177.179,171.526,-24.4185
8677,146624.4,177.514,171.865,-0.581357
8689,146827.2,177.853,172.205,3.698854
8701,147030,178.194,172.545,-2.649215
8713,147232.8,178.536,172.884,-7.943946
8725,147435.6,178.873,173.224,-10.5917
8737,147638.4,179.21,173.564,-11.892
8749,147841.2,179.548,173.904,-12.3702
8761,148044,179.888,174.244,-12.6938
8773,148246.8,180.227,174.584,-12.8247
8785,148449.6,180.565,174.924,-13.0873
8797,148652.4,180.902,175.264,-13.6392
8809,148855.2,181.235,175.604,-15.2102
8821,149058,181.57,175.945,-21.3795
8833,149260.8,181.906,176.283,-45.9958
8845,149463.6,182.247,176.62,-82.3935
8857,149666.4,182.586,176.956,-74.6068
8869,149869.2,182.926,177.294,-89.218
8881,150072,183.266,177.63,-84.187
8893,150274.8,183.604,177.969,-44.05084
8905,150477.6,183.938,178.309,-27.4392
8917,150680.4,184.275,178.649,-20.1576
8929,150883.2,184.616,178.989,-16.9395
8941,151086,184.958,179.329,-15.41787
8953,151288.8,185.299,179.67,-14.8351
8965,151491.6,185.635,180.011,-14.5845
8977,151694.4,185.971,180.351,-14.5826
8989,151897.2,186.307,180.692,-14.4543
9001,152100,186.642,181.032,-14.4963
9013,152302.8,186.976,181.372,-14.54312
9025,152505.6,187.316,181.713,-14.5839
9037,152708.4,187.6574,182.052,-14.5966
9049,152911.2,188.003,182.392,-14.6277
9061,153114,188.345,182.734,-14.561
9073,153316.8,188.682,183.075,-14.6477
9085,153519.6,189.018,183.416,-14.7973
9097,153722.4,189.353,183.758,-14.8025
9109,153925.2,189.688,184.098,-14.6701
9121,154128,190.024,184.439,-14.618
9133,154330.8,190.364,184.781,-14.7924
9145,154533.6,190.702,185.122,-14.7617
9157,154736.4,191.039,185.463,-14.7044
9169,154939.2,191.375,185.8039,-14.9127
9181,155142,191.712,186.145,-14.8392
9193,155344.8,192.054,186.485,-14.8721
9205,155547.6,192.393,186.826,-14.9399
9217,155750.4,192.731,187.166,-14.9546
9229,155953.2,193.065,187.507,-14.8972
9241,156156,193.4,187.848,-14.8218
9253,156358.8,193.738,188.188,-14.9495
9265,156561.6,194.079,188.528,-14.9482
9277,156764.4,194.418,188.868,-15.0634
9289,156967.2,194.753,189.208,-15.1914
9301,157170,195.09,189.546,-15.1778
9313,157372.8,195.427,189.886,-15.2574
9325,157575.6,195.771,190.226,-15.2935
9337,157778.4,196.113,190.566,-15.3177
9349,157981.2,196.45,190.907,-15.2454
9361,158184,196.785,191.247,-15.2758
9373,158386.8,197.122,191.587,-15.2501
9385,158589.6,197.463,191.928,-15.30103
9397,158792.4,197.801,192.267,-15.3027
9409,158995.2,198.137,192.608,-15.176
9421,159198,198.475,192.948,-15.3881
9433,159400.8,198.81,193.288,-15.3194
9445,159603.6,199.15,193.628,-15.26948
9457,159806.4,199.489,193.968,-15.2705
9469,160009.2,199.8272,194.309,-15.3525
9481,160212,200.164,194.648,-15.3552
9493,160414.8,200.501,194.988,-15.4336
9505,160617.6,200.839,195.328,-15.4962
9517,160820.4,201.179,195.668,-15.67443
9529,161023.2,201.518,196.008,-15.6247
9541,161226,201.856,196.348,-15.6997
9553,161428.8,202.1929,196.688,-15.6789
9565,161631.6,202.531,197.028,-15.7969
9577,161834.4,202.869,197.368,-15.71013
9589,162037.2,203.207,197.708,-15.811
9601,162240,203.545,198.049,-15.8084
9613,162442.8,203.883,198.389,-15.8663
9625,162645.6,204.22,198.728,-15.9949
9637,162848.4,204.558,199.068,-16.0051
9649,163051.2,204.896,199.409,-16.10298
9661,163254,205.236,199.749,-16.2892
9673,163456.8,205.572,200.089,-16.1161
9685,163659.6,205.908,200.428,-16.2255
9697,163862.4,206.249,200.769,-16.1383
9709,164065.2,206.588,201.109,-16.17941
9721,164268,206.925,201.449,-16.23495
9733,164470.8,207.262,201.789,-16.3181
9745,164673.6,207.601,202.13,-16.2298
9757,164876.4,207.941,202.47,-16.27673
9769,165079.2,208.28,202.81,-16.42251
9781,165282,208.617,203.15,-16.4306
9793,165484.8,208.953,203.49,-16.46173
9805,165687.6,209.291,203.831,-16.5047
9817,165890.4,209.63,204.171,-16.4969
9829,166093.2,209.968,204.512,-16.4883
9841,166296,210.303,204.852,-16.3788
9853,166498.8,210.641,205.192,-16.6596
9865,166701.6,210.98,205.532,-16.6428
9877,166904.4,211.32,205.872,-16.7355
9889,167107.2,211.658,206.211,-16.6702
9901,167310,211.995,206.551,-16.5982
9913,167512.8,212.333,206.892,-16.6809
9925,167715.6,212.67,207.232,-16.777
9937,167918.4,213.008,207.572,-16.90694
9949,168121.2,213.347,207.912,-16.9273
9961,168324,213.685,208.252,-16.9098
9973,168526.8,214.023,208.593,-17.0789
9985,168729.6,214.362,208.932,-17.0652
9997,168932.4,214.699,209.273,-16.9737
10009,169135.2,215.037,209.613,-16.9847
10021,169338,215.375,209.953,-17.0637
10033,169540.8,215.713,210.294,-17.1023
10045,169743.6,216.051,210.634,-17.1751
10057,169946.4,216.388,210.974,-17.3556
10069,170149.2,216.726,211.314,-17.2977
10081,170352,217.065,211.654,-17.3735
10093,170554.8,217.402,211.994,-17.5371
10105,170757.6,217.739,212.334,-17.41596
10117,170960.4,218.075,212.673,-17.4077
10129,171163.2,218.413,213.013,-17.4739
10141,171366,218.754,213.353,-17.5101
10153,171568.8,219.093,213.692,-17.5147
10165,171771.6,219.43,214.032,-17.7581
10177,171974.4,219.768,214.373,-17.7189
10189,172177.2,220.105,214.712,-17.95047
10201,172380,220.443,215.052,-17.9377
10213,172582.8,220.782,215.391,-17.7366
10225,172785.6,221.121,215.731,-17.8253
10237,172988.4,221.46,216.071,-17.8565
10249,173191.2,221.798,216.412,-18.1384
10261,173394,222.134,216.751,-18.3119
10273,173596.8,222.47,217.09,-18.277
10285,173799.6,222.809,217.43,-18.1604
10297,174002.4,223.148,217.77,-18.291
10309,174205.2,223.485,218.109,-18.3331
10321,174408,223.824,218.449,-18.29512
10333,174610.8,224.163,218.788,-18.2378
10345,174813.6,224.503,219.128,-18.4088
10357,175016.4,224.842,219.468,-18.5103
10369,175219.2,225.179,219.808,-18.4598
10381,175422,225.516,220.148,-18.5015
10393,175624.8,225.853,220.488,-18.7145
10405,175827.6,226.191,220.828,-18.8841
10417,176030.4,226.528,221.167,-19.0544
10429,176233.2,226.865,221.507,-18.9324
10441,176436,227.203,221.847,-18.9585
10453,176638.8,227.543,222.187,-18.9693
10465,176841.6,227.882,222.5259,-19.1048
10477,177044.4,228.22,222.867,-19.1489
10489,177247.2,228.559,223.207,-19.1318
10501,177450,228.899,223.547,-19.3084
10513,177652.8,229.235,223.887,-19.3577
10525,177855.6,229.573,224.228,-19.4551
10537,178058.4,229.909,224.568,-19.627
10549,178261.2,230.246,224.908,-19.745
10561,178464,230.583,225.248,-19.8552
10573,178666.8,230.921,225.587,-19.79416
10585,178869.6,231.259,225.927,-19.91
10597,179072.4,231.597,226.267,-20.0204
10609,179275.2,231.936,226.607,-20.1741
10621,179478,232.274,226.946,-20.0529
10633,179680.8,232.614,227.286,-20.0859
10645,179883.6,232.953,227.626,-20.2468
10657,180086.4,233.291,227.967,-20.3128
10669,180289.2,233.628,228.307,-20.4089
10681,180492,233.967,228.646,-20.5515
10693,180694.8,234.303,228.987,-20.7604
10705,180897.6,234.642,229.327,-20.8122
10717,181100.4,234.98,229.668,-20.7677
10729,181303.2,235.316,230.007,-21.018
10741,181506,235.652,230.348,-21.1629
10753,181708.8,235.99,230.687,-21.1726
10765,181911.6,236.329,231.026,-21.20995
10777,182114.4,236.67,231.366,-21.2904
10789,182317.2,237.008,231.706,-21.5211
10801,182520,237.344,232.046,-21.7051
10813,182722.8,237.683,232.386,-21.7078
10825,182925.6,238.02,232.725,-21.7876
10837,183128.4,238.359,233.066,-22.0741
10849,183331.2,238.697,233.405,-22.2037
10861,183534,239.035,233.745,-22.2004
10873,183736.8,239.372,234.085,-22.3307
10885,183939.6,239.71,234.424,-22.2933
10897,184142.4,240.049,234.763,-22.3584
10909,184345.2,240.388,235.103,-22.4579
10921,184548,240.725,235.444,-22.6682
10933,184750.8,241.062,235.783,-22.9296
10945,184953.6,241.401,236.123,-23.12303
10957,185156.4,241.739,236.463,-23.1195
10969,185359.2,242.076,236.802,-23.3222
10981,185562,242.414,237.142,-23.5401
10993,185764.8,242.752,237.482,-23.6703
11005,185967.6,243.09,237.821,-23.8739
11017,186170.4,243.428,238.16,-24.0084
11029,186373.2,243.765,238.5,-24.05838
11041,186576,244.106,238.84,-24.2876
11053,186778.8,244.443,239.179,-24.4895
11065,186981.6,244.781,239.519,-24.6662
11077,187184.4,245.117,239.858,-24.9409
11089,187387.2,245.456,240.198,-25.1587
11101,187590,245.794,240.538,-25.2364
11113,187792.8,246.134,240.876,-25.38
11125,187995.6,246.472,241.216,-25.716
11137,188198.4,246.809,241.5556,-25.8995
11149,188401.2,247.145,241.896,-26.16614
11161,188604,247.483,242.235,-26.3186
11173,188806.8,247.823,242.575,-26.64405
11185,189009.6,248.162,242.914,-26.99978
11197,189212.4,248.5,243.253,-27.1838
11209,189415.2,248.838,243.594,-27.3301
11221,189618,249.176,243.933,-27.713
11233,189820.8,249.513,244.272,-28.0631
11245,190023.6,249.851,244.613,-28.3121
11257,190226.4,250.188,244.952,-28.6305
11269,190429.2,250.525,245.292,-28.8858
11281,190632,250.865,245.631,-29.1585
11293,190834.8,251.203,245.97,-29.3611
11305,191037.6,251.54,246.31,-29.8661
11317,191240.4,251.874,246.649,-30.2281
11329,191443.2,252.21,246.988,-30.6608
11341,191646,252.547,247.326,-30.9467
11353,191848.8,252.887,247.665,-31.3097
11365,192051.6,253.226,248.003,-31.71067
11377,192254.4,253.568,248.342,-32.0918
11389,192457.2,253.909,248.681,-32.4761
11401,192660,254.25,249.02,-33.0833
11413,192862.8,254.588,249.359,-33.4674
11425,193065.6,254.922,249.698,-34.02867
11437,193268.4,255.258,250.038,-34.4894
11449,193471.2,255.595,250.377,-35.0319
11461,193674,255.932,250.715,-35.6931
11473,193876.8,256.27,251.055,-36.24797
11485,194079.6,256.61,251.393,-36.7631
11497,194282.4,256.951,251.733,-37.405
11509,194485.2,257.295,252.072,-37.8711
11521,194688,257.631,252.413,-38.7395
11533,194890.8,257.966,252.752,-39.5475
11545,195093.6,258.298,253.092,-40.21112
11557,195296.4,258.632,253.43,-40.9066
11569,195499.2,258.971,253.769,-41.7947
11581,195702,259.31,254.108,-42.7525
11593,195904.8,259.653,254.446,-43.61848
11605,196107.6,259.993,254.786,-44.4602
11617,196310.4,260.328,255.125,-45.5151
11629,196513.2,260.664,255.464,-46.4593
11641,196716,261.001,255.802,-47.5358
11653,196918.8,261.339,256.141,-48.654
11665,197121.6,261.677,256.479,-49.74462
11677,197324.4,262.017,256.818,-51.0572
11689,197527.2,262.354,257.156,-52.4001
11701,197730,262.692,257.494,-53.7364
11713,197932.8,263.029,257.832,-55.1909
11725,198135.6,263.37,258.17,-56.7852
11737,198338.4,263.71,258.509,-58.5212
11749,198541.2,264.051,258.848,-60.2568
11761,198744,264.39,259.187,-62.1458
11773,198946.8,264.726,259.526,-64.119
11785,199149.6,265.061,259.864,-66.2217
11797,199352.4,265.396,260.203,-68.4096
11809,199555.2,265.736,260.542,-70.7187
11821,199758,266.072,260.88,-73.2875
11833,199960.8,266.411,261.219,-75.8589
11845,200163.6,266.75,261.557,-78.7604
11857,200366.4,267.089,261.896,-81.8275
11869,200569.2,267.427,262.2342,-85.0788
11881,200772,267.765,262.572,-88.447
11893,200974.8,268.105,262.911,-92.0673
11905,201177.6,268.443,263.249,-96.0881
11917,201380.4,268.78,263.587,-100.279
11929,201583.2,269.116,263.926,-104.755
11941,201786,269.454,264.265,-109.51
11953,201988.8,269.793,264.603,-114.551
11965,202191.6,270.13,264.941,-119.93
11977,202394.4,270.469,265.279,-125.5858
11989,202597.2,270.806,265.617,-131.666
12001,202800,271.144,265.954,-137.983
12013,203002.8,271.483,266.292,-144.683
12025,203205.6,271.819,266.63,-151.861
12037,203408.4,272.157,266.967,-159.364
12049,203611.2,272.497,267.304,-167.399
12061,203814,272.837,267.642,-175.838
12073,204016.8,273.177,267.979,-184.511
12085,204219.6,273.515,268.316,-193.37
12097,204422.4,273.851,268.654,-202.516
12109,204625.2,274.186,268.991,-211.857
12121,204828,274.524,269.329,-221.366
12133,205030.8,274.862,269.665,-230.147
12145,205233.6,275.199,270.001,-238.174
12157,205436.4,275.538,270.338,-244.073
12169,205639.2,275.875,270.674,-247.301
12181,205842,276.215,271.012,-248.058
12193,206044.8,276.55,271.348,-246.996
12205,206247.6,276.889,271.686,-242.85
12217,206450.4,277.228,272.023,-233.197
12229,206653.2,277.568,272.362,-214.247
12241,206856,277.906,272.7,-188.822
12253,207058.8,278.243,273.04,-123.347
12265,207261.6,278.582,273.383,-81.8785
12277,207464.4,278.918,273.727,-59.8422
12289,207667.2,279.257,274.071,-48.054
12301,207870,279.594,274.414,-41.8102
12313,208072.8,279.934,274.757,-38.4936
12325,208275.6,280.273,275.101,-36.7322
12337,208478.4,280.611,275.443,-35.7947
12349,208681.2,280.948,275.786,-35.2839
12361,208884,281.284,276.128,-35.0112
12373,209086.8,281.623,276.471,-34.8568
12385,209289.6,281.963,276.812,-34.7417
12397,209492.4,282.301,277.154,-34.6751
12409,209695.2,282.638,277.497,-34.6488
12421,209898,282.976,277.838,-34.6223
12433,210100.8,283.313,278.18,-34.56
12445,210303.6,283.649,278.521,-34.5323
12457,210506.4,283.988,278.862,-34.4753
12469,210709.2,284.328,279.203,-34.4811
12481,210912,284.666,279.543,-34.4805
12493,211114.8,285.003,279.884,-34.46281
12505,211317.6,285.342,280.225,-34.4285
12517,211520.4,285.68,280.566,-34.4314
12529,211723.2,286.017,280.906,-34.4168
12541,211926,286.355,281.246,-34.3768
12553,212128.8,286.693,281.587,-34.375
12565,212331.6,287.032,281.927,-34.3385
12577,212534.4,287.369,282.266,-34.3332
12589,212737.2,287.708,282.606,-34.3199
12601,212940,288.045,282.947,-34.3127
12613,213142.8,288.382,283.286,-34.2727
12625,213345.6,288.721,283.626,-34.2432
12637,213548.4,289.06,283.966,-34.2755
12649,213751.2,289.398,284.306,-34.271
12661,213954,289.735,284.646,-34.2656
12673,214156.8,290.074,284.985,-34.2609
12685,214359.6,290.411,285.325,-34.246
12697,214562.4,290.749,285.665,-34.2232
12709,214765.2,291.087,286.004,-34.2029
12721,214968,291.426,286.343,-34.1893
12733,215170.8,291.763,286.684,-34.2055
12745,215373.6,292.102,287.023,-34.2001
12757,215576.4,292.439,287.364,-34.18578
12769,215779.2,292.778,287.702,-34.1906
12781,215982,293.114,288.042,-34.1505
12793,216184.8,293.453,288.381,-34.156
12805,216387.6,293.792,288.721,-34.1549
12817,216590.4,294.129,289.059,-34.1523
12829,216793.2,294.467,289.398,-34.1427
12841,216996,294.805,289.738,-34.0988
12853,217198.8,295.144,290.077,-34.095
12865,217401.6,295.484,290.416,-34.0918
12877,217604.4,295.823,290.756,-34.0811
12889,217807.2,296.16,291.094,-34.0704
12901,218010,296.497,291.434,-34.0621
12913,218212.8,296.835,291.772,-34.0478
12925,218415.6,297.171,292.111,-34.017
12937,218618.4,297.509,292.448,-33.9785
12949,218821.2,297.844,292.786,-33.9548
12961,219024,298.182,293.123,-33.90931
12973,219226.8,298.522,293.459,-33.8683
12985,219429.6,298.86,293.795,-33.8183
12997,219632.4,299.194,294.13,-33.7523
13009,219835.2,299.224,294.455,-33.6187
13021,220038,299.199,294.756,-33.0996
13033,220240.8,299.18,295.034,-31.97174
13045,220443.6,299.17,295.29,-30.3587
13057,220646.4,299.166,295.527,-28.4862
13069,220849.2,299.163,295.746,-26.5421
13081,221052,299.162,295.947,-24.6015
13093,221254.8,299.161,296.133,-22.7412
13105,221457.6,299.161,296.304,-20.9647
13117,221660.4,299.161,296.461,-19.3003
13129,221863.2,299.163,296.607,-17.7521
13141,222066,299.158,296.74,-16.35
13153,222268.8,299.157,296.864,-15.0001
13165,222471.6,299.157,296.977,-13.748
13177,222674.4,299.157,297.081,-12.6005
13189,222877.2,299.158,297.177,-11.5392
13201,223080,299.158,297.266,-10.56257
13213,223282.8,299.159,297.348,-9.669286
13225,223485.6,299.159,297.424,-8.847305
13237,223688.4,299.161,297.493,-8.105354
13249,223891.2,299.162,297.557,-7.423468
13261,224094,299.161,297.617,-6.806261
13273,224296.8,299.16,297.673,-6.226756
13285,224499.6,299.158,297.723,-5.691983
13297,224702.4,299.159,297.77,-5.200367
13309,224905.2,299.157,297.813,-4.738519
13321,225108,299.156,297.854,-4.318606
13333,225310.8,299.155,297.891,-3.91934
13345,225513.6,299.155,297.925,-3.553756
13357,225716.4,299.155,297.956,-3.219961
13369,225919.2,299.154,297.985,-2.903016
13381,226122,299.154,298.012,-2.618531
13393,226324.8,299.153,298.036,-2.34677
13405,226527.6,299.15,298.06,-2.097508
13417,226730.4,299.148,298.08,-1.865082
13429,226933.2,299.146,298.098,-1.629065
13441,227136,299.143,298.114,-1.409534
13453,227338.8,299.145,298.129,-1.198592
13465,227541.6,299.145,298.143,-1.015118
13477,227744.4,299.146,298.154,-0.840058
13489,227947.2,299.146,298.166,-0.685082
13501,228150,299.148,298.176,-0.541607
13513,228352.8,299.149,298.186,-0.429026
13525,228555.6,299.148,298.194,-0.325542
13537,228758.4,299.147,298.202,-0.224291
13549,228961.2,299.146,298.208,-0.13248
13561,229164,299.148,298.214,-0.04067
13573,229366.8,299.148,298.22,0.041357
13585,229569.6,299.148,298.225,0.105193
13597,229772.4,299.149,298.23,0.167999
13609,229975.2,299.15,298.234,0.224456
13621,230178,299.151,298.238,0.273018
13633,230380.8,299.154,298.243,0.309568
13645,230583.6,299.155,298.247,0.33994
13657,230786.4,299.153,298.251,0.35195
13669,230989.2,299.15,298.253,0.37031
13681,231192,299.15,298.257,0.396907
13693,231394.8,299.149,298.26,0.432255
13705,231597.6,299.147,298.261,0.469491
13717,231800.4,299.148,298.264,0.511531
13729,232003.2,299.148,298.266,0.550311
13741,232206,299.147,298.267,0.561293
13753,232408.8,299.149,298.268,0.595097
13765,232611.6,299.15,298.27,0.62461
13777,232814.4,299.15,298.271,0.640396
13789,233017.2,299.15,298.272,0.657555
13801,233220,299.151,298.273,0.675057
13813,233422.8,299.152,298.274,0.68192
13825,233625.6,299.154,298.275,0.679345
13837,233828.4,299.152,298.277,0.6627
13849,234031.2,299.151,298.278,0.673338
13861,234234,299.151,298.278,0.682604
13873,234436.8,299.152,298.279,0.680201
13885,234639.6,299.15,298.279,0.690497
13897,234842.4,299.151,298.28,0.699247
13909,235045.2,299.151,298.281,0.6953
13921,235248,299.15,298.282,0.689637
13933,235450.8,299.149,298.282,0.695471
13945,235653.6,299.15,298.283,0.705595
13957,235856.4,299.15,298.283,0.708511
13969,236059.2,299.15,298.284,0.716233
13981,236262,299.148,298.284,0.721552
13993,236464.8,299.148,298.284,0.73425
14005,236667.6,299.148,298.284,0.738025
14017,236870.4,299.149,298.283,0.750895
14029,237073.2,299.152,298.283,0.763593
14041,237276,299.151,298.284,0.760332
14053,237478.8,299.152,298.284,0.750551
14065,237681.6,299.15,298.284,0.732362
14077,237884.4,299.149,298.284,0.738196
14089,238087.2,299.149,298.284,0.742315
14101,238290,299.149,298.284,0.749007
14113,238492.8,299.149,298.285,0.758101
14125,238695.6,299.15,298.285,0.758272
14137,238898.4,299.151,298.285,0.755698
14149,239101.2,299.149,298.285,0.735793
14161,239304,299.147,298.284,0.732019
14173,239506.8,299.146,298.284,0.744717
14185,239709.6,299.148,298.284,0.768912
14197,239912.4,299.149,298.284,0.784184
14209,240115.2,299.149,298.284,0.786414
14221,240318,299.148,298.283,0.771143
14233,240520.8,299.148,298.283,0.770972
14245,240723.6,299.149,298.283,0.780581
14257,240926.4,299.15,298.282,0.7847
14269,241129.2,299.149,298.282,0.792593
14281,241332,299.147,298.282,0.80512
14293,241534.8,299.149,298.281,0.808381
14305,241737.6,299.148,298.281,0.804263
14317,241940.4,299.152,298.281,0.809067
14329,242143.2,299.154,298.281,0.798428
14341,242346,299.154,298.282,0.779209
14353,242548.8,299.151,298.282,0.775434
14365,242751.6,299.15,298.282,0.777493
14377,242954.4,299.148,298.282,0.772173
14389,243157.2,299.148,298.282,0.799114
14401,243360,299.149,298.282,0.805806
14413,243562.8,299.151,298.282,0.812327
14425,243765.6,299.155,298.283,0.792078
14437,243968.4,299.154,298.284,0.760675
14449,244171.2,299.151,298.284,0.742658
14461,244374,299.148,298.284,0.731333
14473,244576.8,299.148,298.285,0.745575
14485,244779.6,299.147,298.284,0.770799
14497,244982.4,299.149,298.284,0.782982
14509,245185.2,299.15,298.283,0.795509
14521,245388,299.152,298.284,0.797053
14533,245590.8,299.154,298.285,0.773201
14545,245793.6,299.153,298.285,0.755012
14557,245996.4,299.152,298.286,0.741627
14569,246199.2,299.153,298.287,0.732532
14581,246402,299.155,298.288,0.732016
14593,246604.8,299.155,298.289,0.713998
14605,246807.6,299.158,298.29,0.684827
14617,247010.4,299.161,298.292,0.653939
14629,247213.2,299.159,298.294,0.629571
14641,247416,299.156,298.296,0.608808
14653,247618.8,299.152,298.298,0.605203
14665,247821.6,299.148,298.298,0.622362
14677,248024.4,299.144,298.299,0.651017
14689,248227.2,299.146,298.3,0.687737
14701,248430,299.147,298.299,0.725488
14713,248632.8,299.148,298.299,0.74196
14725,248835.6,299.15,298.3,0.752598
14737,249038.4,299.151,298.3,0.753285
14749,249241.2,299.153,298.3,0.755001
14761,249444,299.15,298.301,0.755515
14773,249646.8,299.151,298.302,0.743331
14785,249849.6,299.152,298.303,0.740242
14797,250052.4,299.152,298.304,0.729431
14809,250255.2,299.152,298.304,0.728058
14821,250458,299.152,298.305,0.721881
14833,250660.8,299.15,298.305,0.721537
14845,250863.6,299.151,298.306,0.728743
14857,251066.4,299.151,298.306,0.725655
14869,251269.2,299.15,298.306,0.737837
14881,251472,299.151,298.306,0.732346
14893,251674.8,299.149,298.306,0.746073
14905,251877.6,299.151,298.307,0.738008
14917,252080.4,299.152,298.308,0.745901
14929,252283.2,299.151,298.309,0.738693
14941,252486,299.152,298.31,0.745899
14953,252688.8,299.15,298.31,0.738864
14954,252705.7,299.15,298.31,0.738349