File: archive_jack/Data/6wt%_NH4-H2O.csv
NH3-H2O 6wt%  Specific Heat - Large HF,,,,
Creation Date : 7/12/2022 10:24:27 AM,,,,
User : admin,,,,
,,,,
HeatFlow :,,,,
 Initial Mass : 4598.3 mg,,,,
 Molar Mass : 17 g/mol,,,,
,,,,
Index,Time(s),Furnace Temperature(K),Sample Temperature(K),HeatFlow(mW)
1,0,299.005,298.956,329.51
13,139.2,298.984,298.965,209.668
25,278.4,298.966,298.971,133.266
37,417.6,298.945,298.974,84.558
49,556.8,298.918,298.975,53.5193
61,696,298.878,298.973,33.7813
73,835.2,298.82,298.968,21.27753
85,974.4,298.735,298.96,13.418
97,1113.6,298.62,298.945,8.568341
109,1252.8,298.469,298.925,5.686845
121,1392,298.279,298.895,4.129178
133,1531.2,298.047,298.857,3.495304
145,1670.4,297.773,298.804,3.528582
157,1809.6,297.452,298.739,4.089325
169,1948.8,297.082,298.658,5.067202
181,2088,296.652,298.56,6.414682
193,2227.2,296.153,298.44,8.100221
205,2366.4,295.5758,298.297,10.1157
217,2505.6,294.922,298.127,12.49052
229,2644.8,294.192,297.926,15.2477
241,2784,293.396,297.694,18.3959
253,2923.2,292.539,297.427,21.93151
265,3062.4,291.638,297.126,25.81757
277,3201.6,290.697,296.79,30.0105
289,3340.8,289.725,296.418,34.46145
301,3480,288.729,296.011,39.0952
313,3619.2,287.715,295.571,43.855
325,3758.4,286.687,295.096,48.6818
337,3897.6,285.655,294.592,53.5268
349,4036.8,284.624,294.06,58.2996
361,4176,283.594,293.501,62.9536
373,4315.2,282.564,292.918,67.37966
385,4454.4,281.536,292.314,71.5288
397,4593.6,280.511,291.685,75.4372
409,4732.8,279.494,291.033,79.22148
421,4872,278.483,290.36,82.8878
433,5011.2,277.48,289.667,86.4214
445,5150.4,276.487,288.958,89.7613
457,5289.6,275.5053,288.232,92.8821
469,5428.8,274.534,287.492,95.7824
481,5568,273.575,286.742,98.4486
493,5707.2,272.629,285.98,100.856
505,5846.4,271.695,285.21,103.036
517,5985.6,270.773,284.432,104.981
529,6124.8,269.86,283.647,106.73
541,6264,268.956,282.856,108.265
553,6403.2,268.064,282.061,109.609
565,6542.4,267.179,281.26,110.803
577,6681.6,266.303,280.458,111.82
589,6820.8,265.433,279.651,112.724
601,6960,264.573,278.844,113.505
613,7099.2,263.718,278.034,114.129
625,7238.4,262.869,277.224,114.703
637,7377.6,262.029,276.412,115.152
649,7516.8,261.191,275.6012,115.551
661,7656,260.357,274.789,115.851
673,7795.2,259.5317,273.978,116.009
685,7934.4,258.713,273.167,116.156
697,8073.6,257.9,272.357,116.242
709,8212.8,257.094,271.549,116.307
721,8352,256.296,270.742,116.474
733,8491.2,255.504,269.937,116.376
745,8630.4,254.717,269.134,116.232
757,8769.6,253.937,268.334,116.122
769,8908.8,253.164,267.536,115.959
781,9048,252.396,266.74,115.701
793,9187.2,251.632,265.949,115.553
805,9326.4,250.875,265.159,115.1485
817,9465.6,250.123,264.373,114.85
829,9604.8,249.373,263.589,114.404
841,9744,248.627,262.809,114.097
853,9883.2,247.887,262.032,113.901
865,10022.4,247.151,261.259,113.581
877,10161.6,246.42,260.489,113.077
889,10300.8,245.69,259.721,112.474
901,10440,244.968,258.958,112.114
913,10579.2,244.251,258.198,111.592
925,10718.4,243.54,257.441,111.016
937,10857.6,242.834,256.688,110.641
949,10996.8,242.132,255.939,110.137
961,11136,241.434,255.194,109.816
973,11275.2,240.738,254.455,889.627
985,11414.4,240.047,253.744,1021.61
997,11553.6,239.362,253.031,949.627
1009,11692.8,238.678,252.316,834.904
1021,11832,237.999,251.601,715.251
1033,11971.2,237.326,250.886,600.528
1045,12110.4,236.659,250.172,497.091
1057,12249.6,235.996,249.459,409.418
1069,12388.8,235.338,248.749,338.583
1081,12528,234.684,248.04,283.555
1093,12667.2,234.034,247.336,241.436
1105,12806.4,233.389,246.633,209.134
1117,12945.6,232.748,245.934,184.859
1129,13084.8,232.112,245.24,166.588
1141,13224,231.479,244.549,152.33
1153,13363.2,230.848,243.862,140.908
1165,13502.4,230.221,243.179,132.389
1177,13641.6,229.597,242.499,125.251
1189,13780.8,228.975,241.823,119.106
1201,13920,228.355,241.151,113.845
1213,14059.2,227.738,240.482,109.663
1225,14198.4,227.124,239.818,105.485
1237,14337.6,226.511,239.156,101.619
1249,14476.8,225.902,238.498,98.3729
1261,14616,225.294,237.844,95.599
1273,14755.2,224.69,237.192,92.633
1285,14894.4,224.09,236.545,89.9739
1297,15033.6,223.491,235.9,87.46508
1309,15172.8,222.895,235.258,85.7543
1321,15312,222.302,234.62,83.9879
1333,15451.2,221.713,233.984,81.8067
1345,15590.4,221.126,233.353,79.7447
1357,15729.6,220.544,232.725,78.328
1369,15868.8,219.966,232.099,76.5655
1381,16008,219.394,231.478,75.5733
1393,16147.2,218.824,230.858,73.7154
1405,16286.4,218.259,230.244,72.2135
1417,16425.6,217.696,229.632,70.9182
1429,16564.8,217.135,229.023,69.2904
1441,16704,216.576,228.417,68.29741
1453,16843.2,216.019,227.816,67.4222
1465,16982.4,215.465,227.215,65.9979
1477,17121.6,214.914,226.62,64.6722
1489,17260.8,214.368,226.027,63.4552
1501,17400,213.824,225.437,62.59457
1513,17539.2,213.284,224.85,61.7944
1525,17678.4,212.748,224.267,60.4531
1537,17817.6,212.214,223.686,59.457
1549,17956.8,211.683,223.109,58.4189
1561,18096,211.153,222.534,57.5746
1573,18235.2,210.625,221.963,57.3374
1585,18374.4,210.101,221.395,56.3568
1597,18513.6,209.58,220.829,55.4934
1609,18652.8,209.062,220.266,54.5298
1621,18792,208.548,219.707,53.7432
1633,18931.2,208.037,219.15,53.269
1645,19070.4,207.527,218.597,52.9567
1657,19209.6,207.018,218.046,52.3048
1669,19348.8,206.51,217.498,51.5934
1681,19488,206.006,216.952,51.1451
1693,19627.2,205.506,216.41,50.0996
1705,19766.4,205.008,215.87,49.5212
1717,19905.6,204.513,215.333,48.7858
1729,20044.8,204.021,214.799,48.19771
1741,20184,203.53,214.267,47.4819
1753,20323.2,203.041,213.738,47.31729
1765,20462.4,202.553,213.212,46.6476
1777,20601.6,202.07,212.687,46.0574
1789,20740.8,201.588,212.166,45.6583
1801,20880,201.106,211.647,45.4446
1813,21019.2,200.624,211.13,44.83195
1825,21158.4,200.142,210.615,44.26304
1837,21297.6,199.665,210.104,43.8973
1849,21436.8,199.188,209.594,43.43861
1861,21576,198.713,209.085,43.0085
1873,21715.2,198.239,208.58,42.3702
1885,21854.4,197.767,208.077,41.955
1897,21993.6,197.297,207.5754,41.3924
1909,22132.8,196.83,207.076,41.1936
1921,22272,196.364,206.579,40.6248
1933,22411.2,195.901,206.084,39.9603
1945,22550.4,195.441,205.591,39.4404
1957,22689.6,194.987,205.1,39.6046
1969,22828.8,194.538,204.612,39.2248
1981,22968,194.095,204.126,38.8442
1993,23107.2,193.655,203.643,38.6691
2005,23246.4,193.22,203.162,38.3251
2017,23385.6,192.788,202.684,37.6543
2029,23524.8,192.358,202.209,37.1707
2041,23664,191.931,201.737,37.04294
2053,23803.2,191.506,201.267,36.7612
2065,23942.4,191.082,200.8,36.1624
2077,24081.6,190.659,200.335,35.7462
2089,24220.8,190.239,199.873,35.4248
2101,24360,189.82,199.414,35.1369
2113,24499.2,189.405,198.956,34.70351
2125,24638.4,188.989,198.503,34.3528
2137,24777.6,188.575,198.05,34.1558
2149,24916.8,188.162,197.6,33.6993
2161,25056,187.751,197.151,33.3396
2173,25195.2,187.341,196.705,32.953
2185,25334.4,186.93,196.261,32.7727
2197,25473.6,186.522,195.819,32.6536
2209,25612.8,186.115,195.38,32.7755
2221,25752,185.711,194.943,32.236
2233,25891.2,185.311,194.507,32.0093
2245,26030.4,184.913,194.073,31.7038
2257,26169.6,184.517,193.642,31.3652
2269,26308.8,184.124,193.213,31.282
2281,26448,183.733,192.786,30.8816
2293,26587.2,183.343,192.36,30.35
2305,26726.4,182.956,191.938,29.997
2317,26865.6,182.57,191.516,29.5177
2329,27004.8,182.186,191.097,29.4823
2341,27144,181.805,190.68,29.3359
2353,27283.2,181.425,190.266,29.1796
2365,27422.4,181.046,189.853,28.8432
2377,27561.6,180.667,189.442,28.6391
2389,27700.8,180.291,189.033,28.7387
2401,27840,179.917,188.626,28.4516
2413,27979.2,179.547,188.22,28.2749
2425,28118.4,179.179,187.817,27.62961
2437,28257.6,178.815,187.416,27.7087
2449,28396.8,178.452,187.017,27.65584
2461,28536,178.092,186.62,27.3764
2473,28675.2,177.733,186.226,26.8455
2485,28814.4,177.376,185.832,26.7093
2497,28953.6,177.019,185.442,26.6834
2509,29092.8,176.662,185.052,26.5769
2521,29232,176.308,184.664,26.2601
2533,29371.2,175.957,184.279,26.1674
2545,29510.4,175.609,183.895,26.214
2557,29649.6,175.261,183.514,26.0773
2569,29788.8,174.912,183.135,25.6198
2581,29928,174.562,182.757,25.3739
2593,30067.2,174.211,182.38,25.0574
2605,30206.4,173.861,182.005,24.7573
2617,30345.6,173.511,181.631,24.5204
2629,30484.8,173.164,181.259,24.0042
2641,30624,172.819,180.889,23.8249
2653,30763.2,172.476,180.519,23.6586
2665,30902.4,172.129,180.151,23.71946
2677,31041.6,171.779,179.785,24.1594
2689,31180.8,171.423,179.419,24.27753
2701,31320,171.061,179.054,24.0759
2713,31459.2,170.689,178.689,24.003
2725,31598.4,170.314,178.323,23.7606
2737,31737.6,169.937,177.957,23.17269
2749,31876.8,169.564,177.591,23.1544
2761,32016,169.196,177.225,23.3712
2773,32155.2,168.833,176.86,22.9702
2785,32294.4,168.477,176.495,23.0251
2797,32433.6,168.119,176.131,22.8124
2809,32572.8,167.761,175.768,23.22057
2821,32712,167.401,175.403,23.1144
2833,32851.2,167.04,175.041,23.2356
2845,32990.4,166.676,174.679,23.1469
2857,33129.6,166.313,174.316,23.3161
2869,33268.8,165.951,173.955,23.0212
2881,33408,165.595,173.593,22.7073
2893,33547.2,165.242,173.2321,22.4674
2905,33686.4,164.89,172.871,22.2635
2917,33825.6,164.539,172.512,22.32741
2929,33964.8,164.191,172.152,22.2329
2941,34104,163.848,171.794,22.0103
2953,34243.2,163.515,171.437,22.0823
2965,34382.4,163.19,171.082,22.1241
2977,34521.6,162.872,170.728,22.0313
2989,34660.8,162.559,170.376,21.8495
3001,34800,162.247,170.027,22.1473
3013,34939.2,161.931,169.679,21.7535
3025,35078.4,161.611,169.331,21.6945
3037,35217.6,161.284,168.987,21.3237
3049,35356.8,160.956,168.643,21.1471
3061,35496,160.63,168.299,20.8923
3073,35635.2,160.309,167.958,20.7254
3085,35774.4,159.998,167.617,20.64827
3097,35913.6,159.694,167.278,20.709
3109,36052.8,159.397,166.941,20.785
3121,36192,159.102,166.606,20.3858
3133,36331.2,158.809,166.273,20.2877
3145,36470.4,158.516,165.942,20.256
3157,36609.6,158.218,165.612,20.0722
3169,36748.8,157.912,165.285,19.7813
3181,36888,157.6,164.957,19.3486
3193,37027.2,157.285,164.632,19.1653
3205,37166.4,156.974,164.307,19.2044
3217,37305.6,156.668,163.982,19.3985
3229,37444.8,156.372,163.658,19.3095
3241,37584,156.084,163.337,19.1132
3253,37723.2,155.797,163.016,19.075
3265,37862.4,155.512,162.699,19.0584
3277,38001.6,155.228,162.382,18.77141
3289,38140.8,154.948,162.067,18.5308
3301,38280,154.669,161.754,18.1117
3313,38419.2,154.385,161.443,18.1248
3325,38558.4,154.1,161.132,17.9913
3337,38697.6,153.816,160.824,17.92192
3349,38836.8,153.532,160.516,17.8291
3361,38976,153.25,160.209,17.7324
3373,39115.2,152.968,159.904,17.7632
3385,39254.4,152.689,159.599,17.529
3397,39393.6,152.41,159.297,17.4408
3409,39532.8,152.128,158.996,17.34084
3421,39672,151.843,158.695,17.00216
3433,39811.2,151.558,158.396,17.0644
3445,39950.4,151.275,158.097,17.0365
3457,40089.6,151,157.799,17.0792
3469,40228.8,150.734,157.503,16.9551
3481,40368,150.475,157.208,16.5295
3493,40507.2,150.225,156.914,16.3233
3505,40646.4,149.977,156.623,16.2258
3517,40785.6,149.725,156.335,16.1015
3529,40924.8,149.468,156.048,16.1997
3541,41064,149.21,155.761,15.9181
3553,41203.2,148.953,155.478,15.6831
3565,41342.4,148.699,155.193,15.6305
3577,41481.6,148.446,154.912,15.4511
3589,41620.8,148.193,154.631,15.5954
3601,41760,147.937,154.353,15.5983
3613,41899.2,147.68,154.075,15.3926
3625,42038.4,147.4233,153.797,15.2682
3637,42177.6,147.17,153.521,15.338
3649,42316.8,146.917,153.247,15.12614
3661,42456,146.664,152.974,14.8455
3673,42595.2,146.415,152.7,14.786
3685,42734.4,146.165,152.429,14.6768
3697,42873.6,145.921,152.159,14.582
3709,43012.8,145.678,151.889,14.6258
3721,43152,145.434,151.622,14.5405
3733,43291.2,145.19,151.356,14.5566
3745,43430.4,144.946,151.09,14.324
3757,43569.6,144.699,150.825,14.0653
3769,43708.8,144.449,150.561,13.99767
3781,43848,144.201,150.297,13.9078
3793,43987.2,143.957,150.035,13.9622
3805,44126.4,143.713,149.775,13.8362
3817,44265.6,143.467,149.514,13.6661
3829,44404.8,143.219,149.254,13.6662
3841,44544,142.972,148.995,13.5362
3853,44683.2,142.729,148.736,13.56963
3865,44822.4,142.494,148.479,13.4302
3877,44961.6,142.264,148.222,13.28865
3889,45100.8,142.033,147.966,13.06285
3901,45240,141.8,147.712,13.0643
3913,45379.2,141.568,147.459,13.2553
3925,45518.4,141.34,147.207,13.167
3937,45657.6,141.114,146.956,12.8272
3949,45796.8,140.883,146.706,12.6114
3961,45936,140.646,146.457,12.7797
3973,46075.2,140.402,146.209,12.8041
3985,46214.4,140.158,145.96,12.8101
3997,46353.6,139.918,145.712,12.71623
4009,46492.8,139.686,145.464,12.6538
4021,46632,139.454,145.217,12.5977
4033,46771.2,139.221,144.971,12.5155
4045,46910.4,138.983,144.725,12.3854
4057,47049.6,138.744,144.479,12.2505
4069,47188.8,138.507,144.235,12.1339
4081,47328,138.277,143.991,12.0294
4093,47467.2,138.055,143.747,12.1464
4105,47606.4,137.832,143.505,12.1513
4117,47745.6,137.604,143.263,12.0375
4129,47884.8,137.37,143.022,12.0345
4141,48024,137.134,142.781,11.8139
4153,48163.2,136.899,142.54,11.9195
4165,48302.4,136.67,142.3,11.9297
4177,48441.6,136.449,142.06,11.8213
4189,48580.8,136.232,141.822,11.8461
4201,48720,136.017,141.583,11.8762
4213,48859.2,135.806,141.347,11.879
4225,48998.4,135.598,141.112,11.672
4237,49137.6,135.387,140.878,11.5865
4249,49276.8,135.167,140.644,11.3588
4261,49416,134.94,140.412,11.38423
4273,49555.2,134.708,140.179,11.3603
4285,49694.4,134.479,139.947,11.3689
4297,49833.6,134.257,139.715,11.3358
4309,49972.8,134.042,139.484,11.1742
4321,50112,133.828,139.252,11.1102
4333,50251.2,133.606,139.022,11.1825
4345,50390.4,133.375,138.792,11.0534
4357,50529.6,133.142,138.561,10.9799
4369,50668.8,132.911,138.332,10.9719
4381,50808,132.688,138.101,10.9566
4393,50947.2,132.473,137.872,11.0467
4405,51086.4,132.265,137.644,10.9786
4417,51225.6,132.061,137.416,10.9747
4429,51364.8,131.86,137.19,10.8034
4441,51504,131.667,136.965,10.8196
4453,51643.2,131.477,136.742,10.7407
4465,51782.4,131.286,136.52,10.6773
4477,51921.6,131.087,136.298,10.5299
4489,52060.8,130.88,136.079,10.4944
4501,52200,130.669,135.858,10.6084
4513,52339.2,130.459,135.638,10.5772
4525,52478.4,130.255,135.419,10.4438
4537,52617.6,130.058,135.201,10.4931
4549,52756.8,129.866,134.984,10.2915
4561,52896,129.67,134.769,10.1799
4573,53035.2,129.463,134.554,10.204
4585,53174.4,129.246,134.339,10.2126
4597,53313.6,129.025,134.123,10.1113
4609,53452.8,128.807,133.908,10.0975
4621,53592,128.596,133.693,9.858986
4633,53731.2,128.396,133.478,9.884451
4645,53870.4,128.204,133.264,9.781655
4657,54009.6,128.016,133.051,9.760363
4669,54148.8,127.831,132.839,9.752383
4681,54288,127.65,132.629,9.728996
4693,54427.2,127.471,132.419,9.743499
4705,54566.4,127.284,132.211,9.68411
4717,54705.6,127.085,132.003,9.485131
4729,54844.8,126.869,131.796,9.312939
4741,54984,126.646,131.588,9.301829
4753,55123.2,126.42,131.379,9.301018
4765,55262.4,126.202,131.17,9.291255
4777,55401.6,125.994,130.96,9.379258
4789,55540.8,125.8,130.752,9.495383
4801,55680,125.618,130.543,9.3912
4813,55819.2,125.446,130.337,9.328311
4825,55958.4,125.28,130.132,9.317318
4837,56097.6,125.117,129.929,9.224033
4849,56236.8,124.95,129.727,9.184885
4861,56376,124.774,129.528,9.036334
4873,56515.2,124.594,129.328,8.961705
4885,56654.4,124.413,129.129,8.860812
4897,56793.6,124.234,128.931,8.87497
4909,56932.8,124.048,128.734,8.81433
4921,57072,123.846,128.537,8.762671
4933,57211.2,123.629,128.339,8.781456
4945,57350.4,123.407,128.141,8.657693
4957,57489.6,123.187,127.941,8.549518
4969,57628.8,122.978,127.741,8.680569
4981,57768,122.784,127.541,8.65937
4993,57907.2,122.602,127.341,8.625384
5005,58046.4,122.427,127.143,8.589282
5017,58185.6,122.25,126.945,8.592808
5029,58324.8,122.069,126.748,8.641975
5041,58464,121.886,126.552,8.431931
5053,58603.2,121.707,126.356,8.334013
5065,58742.4,121.537,126.161,8.374594
5077,58881.6,121.375,125.967,8.391716
5089,59020.8,121.218,125.776,8.379101
5101,59160,121.065,125.586,8.376816
5113,59299.2,120.911,125.398,8.225192
5125,59438.4,120.762,125.21,8.122625
5137,59577.6,120.618,125.025,8.075642
5149,59716.8,120.476,124.841,7.928594
5161,59856,120.328,124.66,7.830418
5173,59995.2,120.168,124.479,7.620048
5185,60134.4,119.994,124.3,7.605643
5197,60273.6,119.818,124.119,7.574044
5209,60412.8,119.645,123.939,7.520276
5221,60552,119.479,123.759,7.57234
5233,60691.2,119.325,123.581,7.513822
5245,60830.4,119.177,123.403,7.489549
5257,60969.6,119.029,123.227,7.406015
5269,61108.8,118.871,123.052,7.417315
5281,61248,118.699,122.877,7.319801
5293,61387.2,118.521,122.703,7.349534
5305,61526.4,118.347,122.528,7.373654
5317,61665.6,118.181,122.354,7.258037
5329,61804.8,118.028,122.18,7.308986
5341,61944,117.887,122.007,7.243139
5353,62083.2,117.758,121.836,7.156683
5365,62222.4,117.637,121.667,7.124785
5377,62361.6,117.523,121.5,7.190473
5389,62500.8,117.414,121.336,7.074632
5401,62640,117.305,121.174,7.034772
5413,62779.2,117.199,121.014,6.869617
5425,62918.4,117.092,120.857,6.962035
5437,63057.6,116.984,120.702,6.670616
5449,63196.8,116.87,120.548,6.553801
5461,63336,116.748,120.395,6.447688
5473,63475.2,116.622,120.245,6.316947
5485,63614.4,116.499,120.095,6.214355
5497,63753.6,116.38,119.946,6.135345
5509,63892.8,116.267,119.8,6.018304
5521,64032,116.155,119.655,5.94172
5533,64171.2,116.045,119.511,5.894646
5545,64310.4,115.937,119.368,5.821197
5557,64449.6,115.833,119.228,5.746382
5569,64588.8,115.736,119.088,5.627587
5581,64728,115.644,118.951,5.58682
5593,64867.2,115.558,118.816,5.534197
5605,65006.4,115.474,118.683,5.438966
5617,65145.6,115.391,118.552,5.312171
5629,65284.8,115.309,118.423,5.173626
5641,65424,115.227,118.297,5.067044
5653,65563.2,115.144,118.172,4.93704
5665,65702.4,115.055,118.048,4.880852
5677,65841.6,114.96,117.926,4.854828
5689,65980.8,114.861,117.805,4.77722
5701,66120,114.765,117.684,4.710939
5713,66259.2,114.673,117.566,4.648036
5725,66398.4,114.587,117.448,4.546062
5737,66537.6,114.507,117.332,4.51714
5749,66676.8,114.432,117.218,4.423645
5761,66816,114.363,117.106,4.344768
5773,66955.2,114.298,116.994,4.310446
5785,67094.4,114.236,116.887,4.235961
5797,67233.6,114.175,116.779,4.155142
5809,67372.8,114.114,116.675,4.083315
5821,67512,114.054,116.573,4.008084
5833,67651.2,113.992,116.472,3.927952
5845,67790.4,113.926,116.372,3.830127
5857,67929.6,113.858,116.274,3.749086
5869,68068.8,113.791,116.177,3.681907
5881,68208,113.726,116.082,3.609537
5893,68347.2,113.665,115.988,3.56715
5905,68486.4,113.607,115.896,3.499303
5917,68625.6,113.55,115.805,3.421209
5929,68764.8,113.494,115.715,3.348658
5941,68904,113.438,115.627,3.293911
5953,69043.2,113.38,115.541,3.227998
5965,69182.4,113.321,115.455,3.167688
5977,69321.6,113.261,115.37,3.121341
5989,69460.8,113.2,115.287,3.056036
6001,69600,113.141,115.205,3.01043
6013,69739.2,113.084,115.1229,2.958157
6025,69878.4,113.034,115.043,2.908792
6037,70017.6,112.99,114.964,2.853949
6049,70156.8,112.944,114.886,2.791214
6061,70296,112.892,114.81,2.76745
6073,70435.2,112.83,114.735,2.729807
6085,70574.4,112.762,114.66,2.684897
6097,70713.6,112.689,114.585,2.641761
6109,70852.8,112.617,114.51,2.60701
6121,70992,112.547,114.436,2.588769
6133,71131.2,112.481,114.361,2.570521
6145,71270.4,112.423,114.287,2.552856
6157,71409.6,112.374,114.215,2.533627
6169,71548.8,112.338,114.143,2.494141
6181,71688,112.312,114.073,2.448842
6193,71827.2,112.292,114.005,2.394706
6205,71966.4,112.276,113.94,2.337155
6217,72105.6,112.26,113.876,2.278311
6229,72244.8,112.236,113.814,2.228155
6241,72384,112.201,113.754,2.149484
6253,72523.2,112.155,113.695,2.100105
6265,72662.4,112.101,113.635,2.05614
6277,72801.6,112.044,113.577,2.009099
6289,72940.8,111.985,113.517,1.979916
6301,73080,111.93,113.458,1.948591
6313,73219.2,111.882,113.399,1.926634
6325,73358.4,111.844,113.342,1.908903
6337,73497.6,111.811,113.285,1.889623
6349,73636.8,111.783,113.229,1.879432
6361,73776,111.759,113.174,1.844897
6373,73915.2,111.738,113.121,1.801496
6385,74054.4,111.716,113.069,1.746489
6397,74193.6,111.688,113.019,1.686251
6409,74332.8,111.651,112.968,1.631755
6421,74472,111.605,112.919,1.575072
6433,74611.2,111.554,112.869,1.53786
6445,74750.4,111.5,112.82,1.524988
6457,74889.6,111.449,112.769,1.514868
6469,75028.8,111.406,112.72,1.506254
6481,75168,111.372,112.671,1.497018
6493,75307.2,111.346,112.623,1.478307
6505,75446.4,111.325,112.575,1.463847
6517,75585.6,111.302,112.529,1.419745
6529,75724.8,111.272,112.483,1.38447
6541,75864,111.233,112.438,1.352525
6553,76003.2,111.188,112.394,1.326972
6565,76142.4,111.139,112.349,1.323119
6577,76281.6,111.091,112.303,1.301829
6589,76420.8,111.048,112.258,1.302559
6601,76560,111.016,112.213,1.299306
6613,76699.2,110.992,112.169,1.281039
6625,76838.4,110.972,112.126,1.265206
6637,76977.6,110.952,112.084,1.237712
6649,77116.8,110.932,112.043,1.207432
6661,77256,110.912,112.002,1.167626
6673,77395.2,110.896,111.962,1.137603
6685,77534.4,110.882,111.924,1.105405
6697,77673.6,110.869,111.887,1.067043
6709,77812.8,110.857,111.851,1.028655
6721,77952,110.846,111.815,0.98441
6733,78091.2,110.837,111.781,0.945968
6745,78230.4,110.825,111.748,0.904122
6757,78369.6,110.811,111.715,0.859792
6769,78508.8,110.793,111.684,0.824039
6781,78648,110.776,111.652,0.791344
6793,78787.2,110.762,111.623,0.766002
6805,78926.4,110.752,111.592,0.733887
6817,79065.6,110.742,111.564,0.694677
6829,79204.8,110.733,111.536,0.675438
6841,79344,110.724,111.509,0.634658
6853,79483.2,110.716,111.481,0.604013
6865,79622.4,110.707,111.455,0.570273
6877,79761.6,110.698,111.431,0.547904
6889,79900.8,110.687,111.406,0.515368
6901,80040,110.676,111.382,0.479739
6913,80179.2,110.666,111.359,0.455489
6925,80318.4,110.657,111.337,0.431538
6937,80457.6,110.647,111.314,0.418362
6949,80596.8,110.638,111.293,0.393161
6961,80736,110.63,111.273,0.372263
6973,80875.2,110.623,111.251,0.350131
6985,81014.4,110.615,111.231,0.324904
6997,81153.6,110.606,111.211,0.295045
7009,81292.8,110.598,111.193,0.275043
7021,81432,110.588,111.174,0.255343
7033,81571.2,110.577,111.156,0.245817
7045,81710.4,110.564,111.138,0.227957
7057,81849.6,110.553,111.119,0.209169
7069,81988.8,110.543,111.103,0.201481
7081,82128,110.535,111.085,0.191632
7093,82267.2,110.527,111.068,0.173447
7105,82406.4,110.52,111.052,0.157726
7117,82545.6,110.513,111.036,0.145087
7129,82684.8,110.504,111.02,0.128124
7141,82824,110.494,111.005,0.113626
7153,82963.2,110.483,110.989,0.099125
7165,83102.4,110.474,110.975,0.084929
7177,83241.6,110.467,110.96,0.076908
7189,83380.8,110.46,110.945,0.071665
7201,83520,110.453,110.932,0.056225
7213,83659.2,110.446,110.918,0.049434
7225,83798.4,110.438,110.904,0.036461
7237,83937.6,110.43,110.891,0.017305
7249,84076.8,110.42,110.8776,0.011744
7261,84216,110.41,110.865,0.008036
7273,84355.2,110.402,110.853,0.000927
7285,84494.4,110.396,110.84,-0.003401
7297,84633.6,110.39,110.828,-0.010512
7309,84772.8,110.385,110.815,-0.029064
7321,84912,110.379,110.804,-0.031231
7333,85051.2,110.374,110.792,-0.036491
7345,85190.4,110.366,110.781,-0.054432
7357,85329.6,110.359,110.77,-0.068355
7369,85468.8,110.35,110.759,-0.07269
7381,85608,110.341,110.748,-0.072387
7393,85747.2,110.332,110.737,-0.084149
7405,85886.4,110.321,110.727,-0.095603
7417,86025.6,110.309,110.716,-0.097467
7429,86164.8,110.298,110.705,-0.086644
7441,86304,110.286,110.694,-0.094697
7453,86443.2,110.274,110.683,-0.093776
7465,86582.4,110.262,110.672,-0.093784
7477,86721.6,110.25,110.661,-0.088839
7489,86860.8,110.238,110.65,-0.091322
7501,87000,110.227,110.639,-0.085757
7513,87139.2,110.215,110.628,-0.082978
7525,87278.4,110.203,110.617,-0.085152
7537,87417.6,110.191,110.606,-0.087636
7549,87556.8,110.179,110.595,-0.081449
7561,87696,110.167,110.584,-0.080527
7573,87835.2,110.155,110.572,-0.080224
7585,87974.4,110.143,110.561,-0.089524
7597,88113.6,110.13,110.55,-0.078068
7609,88252.8,110.117,110.538,-0.074667
7621,88392,110.104,110.527,-0.071575
7633,88531.2,110.09,110.515,-0.075299
7645,88670.4,110.076,110.504,-0.074376
7657,88809.6,110.065,110.492,-0.075932
7669,88948.8,110.057,110.48,-0.072839
7681,89088,110.05,110.469,-0.069435
7693,89227.2,110.043,110.457,-0.076261
7705,89366.4,110.038,110.446,-0.083088
7717,89505.6,110.032,110.435,-0.088366
7729,89644.8,110.026,110.425,-0.089303
7741,89784,110.019,110.414,-0.106676
7753,89923.2,110.012,110.404,-0.106683
7765,90062.4,110.003,110.394,-0.107001
7777,90201.6,109.994,110.383,-0.119417
7789,90340.8,109.983,110.374,-0.119736
7801,90480,109.972,110.364,-0.120675
7813,90619.2,109.963,110.353,-0.126889
7825,90758.4,109.957,110.343,-0.129381
7837,90897.6,109.95,110.333,-0.126287
7849,91036.8,109.944,110.324,-0.142742
7861,91176,109.938,110.314,-0.141511
7873,91315.2,109.931,110.304,-0.142763
7885,91454.4,109.923,110.295,-0.155188
7897,91593.6,109.915,110.286,-0.166372
7909,91732.8,109.906,110.277,-0.160796
7921,91872,109.896,110.267,-0.165774
7933,92011.2,109.884,110.258,-0.162681
7945,92150.4,109.873,110.248,-0.165487
7957,92289.6,109.862,110.239,-0.166119
7969,92428.8,109.853,110.229,-0.166131
7981,92568,109.845,110.22,-0.157447
7993,92707.2,109.837,110.211,-0.167396
8005,92846.4,109.83,110.201,-0.16865
8017,92985.6,109.821,110.192,-0.164624
8029,93124.8,109.811,110.182,-0.161218
8041,93264,109.799,110.173,-0.165889
8053,93403.2,109.788,110.164,-0.173978
8065,93542.4,109.778,110.154,-0.169952
8077,93681.6,109.77,110.145,-0.158156
8089,93820.8,109.76,110.135,-0.165935
8101,93960,109.75,110.126,-0.159732
8113,94099.2,109.74,110.116,-0.156946
8125,94238.4,109.729,110.106,-0.160687
8137,94377.6,109.729,110.097,-0.160698
8149,94516.8,110.052,110.091,-0.209818
8161,94656,110.827,110.104,-0.438866
8173,94795.2,111.696,110.148,-0.943944
8185,94934.4,112.483,110.222,-1.691214
8197,95073.6,113.176,110.324,-2.570288
8209,95212.8,113.806,110.45,-3.524326
8221,95352,114.4,110.598,-4.451737
8233,95491.2,114.979,110.764,-5.32199
8245,95630.4,115.555,110.947,-6.145474
8257,95769.6,116.133,111.149,-6.904192
8269,95908.8,116.708,111.365,-7.613958
8281,96048,117.283,111.597,-8.287696
8293,96187.2,117.86,111.842,-8.939303
8305,96326.4,118.441,112.103,-9.551721
8317,96465.6,119.025,112.375,-10.13992
8329,96604.8,119.61,112.662,-10.7019
8341,96744,120.194,112.96,-11.2549
8353,96883.2,120.78,113.271,-11.8064
8365,97022.4,121.365,113.593,-12.3217
8377,97161.6,121.951,113.927,-12.8368
8389,97300.8,122.537,114.272,-13.3306
8401,97440,123.12,114.627,-13.8248
8413,97579.2,123.702,114.992,-14.2982
8425,97718.4,124.281,115.366,-14.7702
8437,97857.6,124.862,115.749,-15.2344
8449,97996.8,125.444,116.14,-15.6822
8461,98136,126.023,116.539,-16.1224
8473,98275.2,126.603,116.946,-16.5713
8485,98414.4,127.182,117.361,-17.0028
8497,98553.6,127.763,117.783,-17.4685
8509,98692.8,128.345,118.211,-17.9207
8521,98832,128.925,118.646,-18.39678
8533,98971.2,129.505,119.086,-18.8942
8545,99110.4,130.083,119.533,-19.44477
8557,99249.6,130.663,119.984,-20.0311
8569,99388.8,131.245,120.442,-20.6592
8581,99528,131.827,120.905,-21.3755
8593,99667.2,132.409,121.373,-22.1329
8605,99806.4,132.988,121.845,-22.9336
8617,99945.6,133.568,122.322,-23.7317
8629,100084.8,134.147,122.802,-24.3962
8641,100224,134.726,123.287,-24.7941
8653,100363.2,135.305,123.776,-24.8559
8665,100502.4,135.884,124.269,-24.6635
8677,100641.6,136.465,124.765,-24.4665
8689,100780.8,137.046,125.265,-24.3785
8701,100920,137.628,125.767,-24.398
8713,101059.2,138.21,126.274,-24.499
8725,101198.4,138.791,126.783,-24.63117
8737,101337.6,139.371,127.295,-24.8175
8749,101476.8,139.951,127.81,-24.9844
8761,101616,140.53,128.328,-25.1664
8773,101755.2,141.109,128.849,-25.3604
8785,101894.4,141.688,129.371,-25.5402
8797,102033.6,142.268,129.897,-25.7156
8809,102172.8,142.851,130.424,-25.8927
8821,102312,143.432,130.953,-26.0595
8833,102451.2,144.012,131.485,-26.2412
8845,102590.4,144.593,132.018,-26.3966
8857,102729.6,145.172,132.554,-26.5632
8869,102868.8,145.751,133.092,-26.7111
8881,103008,146.328,133.632,-26.873
8893,103147.2,146.905,134.173,-27.0114
8905,103286.4,147.483,134.714,-27.1507
8917,103425.6,148.064,135.257,-27.2619
8929,103564.8,148.646,135.803,-27.3968
8941,103704,149.231,136.349,-27.5275
8953,103843.2,149.815,136.897,-27.65999
8965,103982.4,150.396,137.446,-27.7886
8977,104121.6,150.976,137.996,-27.923
8989,104260.8,151.557,138.549,-28.048
9001,104400,152.134,139.103,-28.1906
9013,104539.2,152.708,139.657,-28.3144
9025,104678.4,153.283,140.213,-28.4208
9037,104817.6,153.861,140.768,-28.5305
9049,104956.8,154.441,141.324,-28.6275
9061,105096,155.022,141.882,-28.7347
9073,105235.2,155.605,142.44,-28.8507
9085,105374.4,156.188,143,-28.9413
9097,105513.6,156.7713,143.56,-29.0547
9109,105652.8,157.354,144.121,-29.1637
9121,105792,157.938,144.683,-29.2783
9133,105931.2,158.517,145.247,-29.405
9145,106070.4,159.094,145.812,-29.5064
9157,106209.6,159.671,146.376,-29.579
9169,106348.8,160.249,146.941,-29.6405
9181,106488,160.828,147.507,-29.6742
9193,106627.2,161.409,148.073,-29.6862
9205,106766.4,161.992,148.641,-29.6348
9217,106905.6,162.574,149.208,-29.5011
9229,107044.8,163.157,149.776,-29.267
9241,107184,163.738,150.345,-28.8829
9253,107323.2,164.319,150.915,-28.2993
9265,107462.4,164.9,151.486,-27.4501
9277,107601.6,165.48,152.058,-26.2437
9289,107740.8,166.057,152.629,-24.5719
9301,107880,166.632,153.201,-22.2627
9313,108019.2,167.21,153.773,-19.1042
9325,108158.4,167.788,154.347,-14.8205
9337,108297.6,168.37,154.919,-9.09232
9349,108436.8,168.951,155.492,-1.682444
9361,108576,169.533,156.066,7.44763
9373,108715.2,170.114,156.641,17.884
9385,108854.4,170.693,157.217,28.308
9397,108993.6,171.27,157.793,36.556
9409,109132.8,171.85,158.368,40.0868
9421,109272,172.431,158.944,37.33301
9433,109411.2,173.012,159.521,29.0051
9445,109550.4,173.596,160.097,17.84329
9457,109689.6,174.175,160.673,6.645509
9469,109828.8,174.754,161.249,-2.90792
9481,109968,175.334,161.824,-10.314
9493,110107.2,175.913,162.401,-15.7655
9505,110246.4,176.495,162.977,-19.6637
9517,110385.6,177.077,163.553,-22.4045
9529,110524.8,177.657,164.131,-24.3314
9541,110664,178.237,164.708,-25.6905
9553,110803.2,178.815,165.285,-26.6696
9565,110942.4,179.395,165.863,-27.3919
9577,111081.6,179.977,166.441,-27.9398
9589,111220.8,180.559,167.019,-28.3673
9601,111360,181.141,167.598,-28.7305
9613,111499.2,181.722,168.178,-29.0726
9625,111638.4,182.299,168.758,-29.4252
9637,111777.6,182.875,169.338,-29.9052
9649,111916.8,183.454,169.917,-30.8698
9661,112056,184.034,170.498,-33.6773
9673,112195.2,184.616,171.078,-43.5542
9685,112334.4,185.197,171.658,-62.6862
9697,112473.6,185.776,172.238,-87.20859
9709,112612.8,186.358,172.82,-75.6103
9721,112752,186.937,173.403,-4.872732
9733,112891.2,187.514,173.987,10.94303
9745,113030.4,188.093,174.57,1.787416
9757,113169.6,188.672,175.154,-10.2219
9769,113308.8,189.254,175.738,-19.4752
9781,113448,189.835,176.322,-27.96
9793,113587.2,190.418,176.906,-55.1717
9805,113726.4,190.999,177.488,-116.43
9817,113865.6,191.579,178.069,-168.128
9829,114004.8,192.16,178.649,-203.2
9841,114144,192.738,179.23,-218.368
9853,114283.2,193.315,179.813,-141.743
9865,114422.4,193.893,180.397,-96.3878
9877,114561.6,194.472,180.983,-71.1983
9889,114700.8,195.053,181.569,-56.8957
9901,114840,195.635,182.155,-48.7497
9913,114979.2,196.217,182.743,-44.1047
9925,115118.4,196.799,183.33,-41.4827
9937,115257.6,197.381,183.917,-40.0568
9949,115396.8,197.961,184.505,-39.2958
9961,115536,198.539,185.094,-38.923
9973,115675.2,199.116,185.682,-38.74793
9985,115814.4,199.694,186.27,-38.7062
9997,115953.6,200.275,186.858,-38.7405
10009,116092.8,200.856,187.446,-38.8321
10021,116232,201.438,188.034,-38.94658
10033,116371.2,202.019,188.624,-39.0747
10045,116510.4,202.599,189.212,-39.2259
10057,116649.6,203.178,189.802,-39.364
10069,116788.8,203.758,190.391,-39.4978
10081,116928,204.337,190.98,-39.6569
10093,117067.2,204.916,191.569,-39.7996
10105,117206.4,205.497,192.159,-39.9625
10117,117345.6,206.077,192.748,-40.123
10129,117484.8,206.657,193.338,-40.2725
10141,117624,207.235,193.927,-40.4129
10153,117763.2,207.813,194.516,-40.5877
10165,117902.4,208.393,195.106,-40.7279
10177,118041.6,208.974,195.695,-40.8859
10189,118180.8,209.555,196.285,-41.0821
10201,118320,210.138,196.874,-41.2418
10213,118459.2,210.721,197.465,-41.4165
10225,118598.4,211.303,198.055,-41.6001
10237,118737.6,211.883,198.646,-41.7702
10249,118876.8,212.463,199.236,-41.9345
10261,119016,213.042,199.827,-42.1218
10273,119155.2,213.621,200.418,-42.3304
10285,119294.4,214.2,201.009,-42.54162
10297,119433.6,214.777,201.6,-42.7295
10309,119572.8,215.355,202.191,-42.9066
10321,119712,215.935,202.782,-43.0906
10333,119851.2,216.5161,203.373,-43.2733
10345,119990.4,217.098,203.964,-43.4961
10357,120129.6,217.677,204.554,-43.6719
10369,120268.8,218.259,205.146,-43.8818
10381,120408,218.839,205.737,-44.1101
10393,120547.2,219.416,206.327,-44.3147
10405,120686.4,219.995,206.919,-44.5276
10417,120825.6,220.574,207.51,-44.7375
10429,120964.8,221.155,208.101,-44.978
10441,121104,221.737,208.692,-45.21489
10453,121243.2,222.319,209.282,-45.4789
10465,121382.4,222.901,209.874,-45.7058
10477,121521.6,223.48,210.466,-45.9391
10489,121660.8,224.059,211.057,-46.2011
10501,121800,224.636,211.649,-46.4584
10513,121939.2,225.214,212.239,-46.69351
10525,122078.4,225.793,212.83,-46.978
10537,122217.6,226.375,213.421,-47.2859
10549,122356.8,226.957,214.012,-47.5586
10561,122496,227.538,214.603,-47.8442
10573,122635.2,228.118,215.195,-48.1109
10585,122774.4,228.696,215.785,-48.4354
10597,122913.6,229.274,216.376,-48.76589
10609,123052.8,229.853,216.967,-49.0648
10621,123192,230.435,217.5576,-49.37828
10633,123331.2,231.016,218.147,-49.6858
10645,123470.4,231.597,218.739,-49.98081
10657,123609.6,232.178,219.329,-50.2704
10669,123748.8,232.757,219.921,-50.6115
10681,123888,233.338,220.512,-50.9878
10693,124027.2,233.918,221.103,-51.3646
10705,124166.4,234.499,221.6943,-51.7375
10717,124305.6,235.08,222.285,-52.1099
10729,124444.8,235.661,222.876,-52.5
10741,124584,236.24,223.468,-52.9149
10753,124723.2,236.821,224.06,-53.3525
10765,124862.4,237.4,224.651,-53.8153
10777,125001.6,237.979,225.242,-54.2733
10789,125140.8,238.561,225.834,-54.6953
10801,125280,239.139,226.426,-55.1624
10813,125419.2,239.718,227.017,-55.6894
10825,125558.4,240.296,227.609,-56.1918
10837,125697.6,240.873,228.2,-56.6463
10849,125836.8,241.451,228.791,-57.159
10861,125976,242.033,229.381,-57.6898
10873,126115.2,242.614,229.971,-58.2531
10885,126254.4,243.196,230.562,-58.83541
10897,126393.6,243.775,231.152,-59.4952
10909,126532.8,244.353,231.743,-60.15867
10921,126672,244.932,232.333,-60.80609
10933,126811.2,245.514,232.923,-61.4683
10945,126950.4,246.095,233.513,-62.1148
10957,127089.6,246.678,234.103,-62.8508
10969,127228.8,247.256,234.693,-63.6142
10981,127368,247.832,235.283,-64.41648
10993,127507.2,248.408,235.874,-65.2409
11005,127646.4,248.988,236.464,-66.0508
11017,127785.6,249.57,237.053,-66.8536
11029,127924.8,250.153,237.642,-67.7715
11041,128064,250.735,238.231,-68.7228
11053,128203.2,251.312,238.82,-69.736
11065,128342.4,251.884,239.409,-70.7855
11077,128481.6,252.462,239.998,-71.8333
11089,128620.8,253.044,240.585,-72.9216
11101,128760,253.629,241.172,-74.0473
11113,128899.2,254.213,241.76,-75.2361
11125,129038.4,254.794,242.348,-76.5025
11137,129177.6,255.369,242.936,-77.8621
11149,129316.8,255.946,243.523,-79.2568
11161,129456,256.528,244.11,-80.6998
11173,129595.2,257.11,244.697,-82.2971
11185,129734.4,257.695,245.284,-83.9541
11197,129873.6,258.278,245.872,-85.6438
11209,130012.8,258.853,246.46,-87.4823
11221,130152,259.426,247.047,-89.4495
11233,130291.2,260.006,247.633,-91.4857
11245,130430.4,260.586,248.221,-93.5903
11257,130569.6,261.172,248.807,-95.8543
11269,130708.8,261.756,249.394,-98.25727
11281,130848,262.34,249.981,-100.82
11293,130987.2,262.923,250.569,-103.53
11305,131126.4,263.503,251.158,-106.423
11317,131265.6,264.076,251.745,-109.508
11329,131404.8,264.653,252.333,-112.799
11341,131544,265.233,252.922,-116.248
11353,131683.2,265.816,253.509,-119.913
11365,131822.4,266.4,254.097,-123.776
11377,131961.6,266.973,254.685,-127.908
11389,132100.8,267.544,255.272,-132.313
11401,132240,268.121,255.858,-136.974
11413,132379.2,268.7,256.443,-141.937
11425,132518.4,269.286,257.029,-147.279
11437,132657.6,269.872,257.613,-152.947
11449,132796.8,270.452,258.2,-159.136
11461,132936,271.023,258.785,-165.811
11473,133075.2,271.595,259.369,-172.983
11485,133214.4,272.175,259.953,-180.678
11497,133353.6,272.758,260.535,-188.873
11509,133492.8,273.346,261.119,-197.587
11521,133632,273.933,261.702,-206.958
11533,133771.2,274.513,262.285,-216.979
11545,133910.4,275.084,262.869,-227.677
11557,134049.6,275.656,263.45,-239.025
11569,134188.8,276.234,264.031,-251.19
11581,134328,276.82,264.611,-264.347
11593,134467.2,277.406,265.192,-278.015
11605,134606.4,277.993,265.775,-291.66
11617,134745.6,278.572,266.355,-303.112
11629,134884.8,279.145,266.936,-313.351
11641,135024,279.723,267.517,-321.7
11653,135163.2,280.308,268.098,-329.748
11665,135302.4,280.893,268.679,-337.832
11677,135441.6,281.48,269.261,-341.979
11689,135580.8,282.067,269.844,-339.642
11701,135720,282.651,270.429,-320.858
11713,135859.2,283.227,271.015,-311.917
11725,135998.4,283.794,271.601,-307.432
11737,136137.6,284.359,272.185,-298.518
11749,136276.8,284.935,272.768,-283.684
11761,136416,285.519,273.351,-248.77
11773,136555.2,286.105,273.936,-189.222
11785,136694.4,286.694,274.523,-152.071
11797,136833.6,287.274,275.111,-127.852
11809,136972.8,287.847,275.7,-112.196
11821,137112,288.425,276.287,-102.088
11833,137251.2,289.008,276.874,-95.5325
11845,137390.4,289.594,277.462,-91.30013
11857,137529.6,290.18,278.05,-88.5787
11869,137668.8,290.765,278.639,-86.8471
11881,137808,291.345,279.228,-85.7541
11893,137947.2,291.925,279.818,-85.0889
11905,138086.4,292.506,280.408,-84.6729
11917,138225.6,293.089,280.999,-84.4176
11929,138364.8,293.67,281.59,-84.2707
11941,138504,294.249,282.181,-84.1977
11953,138643.2,294.819,282.773,-84.1853
11965,138782.4,295.394,283.363,-84.1698
11977,138921.6,295.974,283.953,-84.1254
11989,139060.8,296.557,284.542,-84.0895
12001,139200,297.136,285.132,-84.0556
12013,139339.2,297.704,285.72,-84.0329
12025,139478.4,298.272,286.3063,-83.9868
12037,139617.6,298.852,286.893,-83.89481
12049,139756.8,299.283,287.476,-83.7747
12061,139896,299.277,288.041,-83.53756
12073,140035.2,299.248,288.578,-82.9
12085,140174.4,299.227,289.084,-81.5904
12097,140313.6,299.213,289.564,-79.6014
12109,140452.8,299.204,290.018,-77.071
12121,140592,299.2,290.447,-74.1812
12133,140731.2,299.19,290.852,-71.0746
12145,140870.4,299.18,291.234,-67.8621
12157,141009.6,299.174,291.596,-64.604
12169,141148.8,299.175,291.937,-61.3719
12181,141288,299.175,292.259,-58.2205
12193,141427.2,299.167,292.564,-55.1851
12205,141566.4,299.161,292.851,-52.2633
12217,141705.6,299.161,293.121,-49.433
12229,141844.8,299.164,293.378,-46.7348
12241,141984,299.17,293.619,-44.1737
12253,142123.2,299.174,293.848,-41.7625
12265,142262.4,299.177,294.064,-39.4952
12277,142401.6,299.178,294.269,-37.3612
12289,142540.8,299.179,294.463,-35.3576
12301,142680,299.169,294.647,-33.47
12313,142819.2,299.147,294.82,-31.7093
12325,142958.4,299.132,294.981,-29.9905
12337,143097.6,299.131,295.133,-28.3096
12349,143236.8,299.14,295.276,-26.6761
12361,143376,299.148,295.412,-25.1438
12373,143515.2,299.158,295.541,-23.7296
12385,143654.4,299.161,295.665,-22.4322
12397,143793.6,299.15,295.781,-21.2446
12409,143932.8,299.143,295.889,-20.1074
12421,144072,299.144,295.992,-18.9937
12433,144211.2,299.151,296.088,-17.9278
12445,144350.4,299.157,296.18,-16.9228
12457,144489.6,299.164,296.267,-15.9948
12469,144628.8,299.159,296.351,-15.1285
12481,144768,299.143,296.429,-14.326
12493,144907.2,299.136,296.501,-13.5364
12505,145046.4,299.138,296.569,-12.7515
12517,145185.6,299.146,296.633,-11.9966
12529,145324.8,299.154,296.693,-11.2894
12541,145464,299.16,296.751,-10.6542
12553,145603.2,299.16,296.806,-10.0704
12565,145742.4,299.159,296.858,-9.538074
12577,145881.6,299.161,296.907,-9.03398
12589,146020.8,299.165,296.955,-8.559157
12601,146160,299.168,297,-8.121343
12613,146299.2,299.168,297.044,-7.720858
12625,146438.4,299.166,297.085,-7.354102
12637,146577.6,299.165,297.124,-6.994255
12649,146716.8,299.166,297.161,-6.637721
12661,146856,299.158,297.197,-6.312826
12673,146995.2,299.141,297.23,-6.013566
12685,147134.4,299.127,297.257,-5.657498
12697,147273.6,299.124,297.283,-5.262815
12709,147412.8,299.129,297.306,-4.85992
12721,147552,299.139,297.329,-4.467005
12733,147691.2,299.15,297.352,-4.120827
12745,147830.4,299.16,297.373,-3.813656
12757,147969.6,299.168,297.394,-3.57056
12769,148108.8,299.161,297.415,-3.398401
12781,148248,299.15,297.434,-3.243086
12793,148387.2,299.145,297.451,-3.065803
12805,148526.4,299.148,297.467,-2.861394
12817,148665.6,299.153,297.483,-2.660424
12829,148804.8,299.159,297.498,-2.488144
12841,148944,299.167,297.513,-2.336475
12853,149083.2,299.169,297.528,-2.222931
12865,149222.4,299.159,297.543,-2.133434
12877,149361.6,299.147,297.555,-2.059055
12889,149500.8,299.143,297.566,-1.934711
12901,149640,299.147,297.576,-1.786847
12913,149779.2,299.152,297.586,-1.631087
12925,149918.4,299.158,297.597,-1.492672
12937,150057.6,299.165,297.607,-1.376411
12949,150196.8,299.169,297.618,-1.308744
12961,150336,299.164,297.628,-1.26941
12973,150475.2,299.163,297.638,-1.244329
12985,150614.4,299.165,297.649,-1.203795
12997,150753.6,299.167,297.658,-1.178543
13009,150892.8,299.164,297.668,-1.147112
13021,151032,299.158,297.677,-1.12272
13033,151171.2,299.154,297.685,-1.076011
13045,151310.4,299.153,297.692,-1.001832
13057,151449.6,299.156,297.699,-0.932976
13069,151588.8,299.151,297.707,-0.86704
13081,151728,299.14,297.712,-0.80454
13093,151867.2,299.134,297.717,-0.718348
13105,152006.4,299.139,297.721,-0.608979
13117,152145.6,299.146,297.724,-0.482958
13129,152284.8,299.154,297.729,-0.38973
13141,152424,299.159,297.733,-0.330497
13153,152563.2,299.165,297.738,-0.284483
13165,152702.4,299.165,297.745,-0.28637
13177,152841.6,299.162,297.749,-0.30491
13189,152980.8,299.161,297.755,-0.32139
13201,153120,299.161,297.761,-0.326367
13213,153259.2,299.165,297.766,-0.304905
13225,153398.4,299.169,297.771,-0.311084
13237,153537.6,299.174,297.778,-0.332714
13249,153676.8,299.179,297.785,-0.349364
13261,153816,299.182,297.793,-0.395886
13273,153955.2,299.185,297.802,-0.436913
13285,154094.4,299.185,297.811,-0.511587
13297,154233.6,299.185,297.822,-0.592439
13309,154372.8,299.182,297.831,-0.666767
13321,154512,299.181,297.841,-0.730277
13333,154651.2,299.181,297.853,-0.77679
13345,154790.4,299.179,297.862,-0.833433
13357,154929.6,299.175,297.873,-0.863636
13369,155068.8,299.174,297.883,-0.887488
13381,155208,299.17,297.892,-0.891085
13393,155347.2,299.163,297.902,-0.892793
13405,155486.4,299.16,297.911,-0.867896
13417,155625.6,299.158,297.919,-0.836304
13429,155764.8,299.158,297.926,-0.787891
13441,155904,299.162,297.934,-0.71665
13453,156043.2,299.164,297.941,-0.657597
13465,156182.4,299.161,297.95,-0.618455
13477,156321.6,299.158,297.957,-0.583434
13489,156460.8,299.158,297.964,-0.557168
13501,156600,299.159,297.97,-0.524209
13513,156739.2,299.161,297.977,-0.481465
13525,156878.4,299.162,297.984,-0.472708
13537,157017.6,299.166,297.991,-0.430481
13549,157156.8,299.168,297.998,-0.428761
13561,157296,299.166,298.005,-0.431505
13573,157435.2,299.163,298.012,-0.413136
13585,157574.4,299.162,298.019,-0.400432
13597,157713.6,299.163,298.026,-0.422571
13609,157852.8,299.166,298.032,-0.395964
13621,157992,299.165,298.04,-0.376395
13633,158131.2,299.164,298.046,-0.370729
13645,158270.4,299.161,298.053,-0.349101
13657,158409.6,299.162,298.058,-0.324041
13669,158548.8,299.162,298.065,-0.328673
13681,158688,299.162,298.071,-0.30653
13693,158827.2,299.163,298.077,-0.295029
13705,158966.4,299.162,298.084,-0.289192
13717,159105.6,299.161,298.089,-0.279408
13729,159244.8,299.162,298.096,-0.265333
13741,159384,299.161,298.102,-0.262585
13753,159523.2,299.161,298.107,-0.243534
13765,159662.4,299.161,298.113,-0.230661
13777,159801.6,299.16,298.119,-0.215728
13789,159940.8,299.159,298.125,-0.194961
13801,160080,299.159,298.13,-0.172306
13813,160219.2,299.158,298.135,-0.140556
13825,160358.4,299.159,298.14,-0.134377
13837,160497.6,299.159,298.146,-0.124594
13849,160636.8,299.16,298.15,-0.102283
13861,160776,299.159,298.155,-0.093016
13873,160915.2,299.159,298.16,-0.079458
13885,161054.4,299.16,298.165,-0.077055
13897,161193.6,299.16,298.17,-0.069675
13909,161332.8,299.161,298.175,-0.062124
13921,161472,299.161,298.18,-0.053199
13933,161611.2,299.16,298.185,-0.056288
13945,161750.4,299.159,298.19,-0.064697
13957,161889.6,299.1588,298.194,-0.077567
13969,162028.8,299.156,298.198,-0.072762
13981,162168,299.155,298.203,-0.071217
13993,162307.2,299.153,298.207,-0.053026
14005,162446.4,299.15,298.211,-0.025741
14017,162585.6,299.15,298.214,0.001716
14029,162724.8,299.151,298.217,0.038268
14041,162864,299.15,298.22,0.060576
14053,163003.2,299.152,298.223,0.093524
14065,163142.4,299.152,298.226,0.124241
14077,163281.6,299.152,298.229,0.159419
14089,163420.8,299.153,298.232,0.174348
14101,163560,299.154,298.234,0.196484
14113,163699.2,299.156,298.237,0.223597
14125,163838.4,299.157,298.24,0.232863
14137,163977.6,299.158,298.242,0.247963
14149,164116.8,299.157,298.245,0.261519
14161,164256,299.157,298.248,0.264779
14173,164395.2,299.154,298.251,0.253109
14185,164534.4,299.154,298.253,0.247446
14197,164673.6,299.155,298.256,0.251563
14209,164812.8,299.156,298.258,0.267693
14221,164952,299.155,298.26,0.284852
14233,165091.2,299.155,298.263,0.30407
14245,165230.4,299.154,298.266,0.312306
14257,165369.6,299.152,298.267,0.324832
14269,165508.8,299.152,298.269,0.3214
14281,165648,299.152,298.271,0.332725
14293,165787.2,299.152,298.273,0.363268
14305,165926.4,299.153,298.275,0.3679
14317,166065.6,299.153,298.277,0.37974
14329,166204.8,299.153,298.278,0.393295
14341,166344,299.154,298.28,0.408738
14353,166483.2,299.154,298.282,0.414057
14365,166622.4,299.154,298.284,0.412683
14377,166761.6,299.152,298.285,0.420919
14389,166900.8,299.151,298.287,0.42109
14401,167040,299.151,298.287,0.448545
14413,167179.2,299.151,298.288,0.471195
14425,167318.4,299.151,298.2899,0.485093
14437,167457.6,299.152,298.291,0.488009
14449,167596.8,299.152,298.293,0.493156
14461,167736,299.152,298.294,0.494357
14473,167875.2,299.153,298.294,0.495386
14485,168014.4,299.152,298.295,0.492983
14497,168153.6,299.151,298.297,0.498131
14509,168292.8,299.152,298.298,0.512201
14521,168432,299.151,298.299,0.519922
14533,168571.2,299.15,298.3,0.519235
14545,168710.4,299.15,298.3,0.52953
14557,168849.6,299.148,298.301,0.533133
14569,168988.8,299.148,298.302,0.547203
14581,169128,299.148,298.302,0.568823
14593,169267.2,299.1465,298.303,0.577231
14605,169406.4,299.147,298.302,0.589929
14617,169545.6,299.149,298.303,0.609146
14629,169684.8,299.15,298.303,0.624933
14641,169824,299.15,298.304,0.62682
14653,169963.2,299.151,298.304,0.638145
14665,170102.4,299.151,298.304,0.63334
14677,170241.6,299.15,298.304,0.635742
14689,170380.8,299.15,298.305,0.646552
14701,170520,299.149,298.305,0.647238
14713,170659.2,299.149,298.305,0.643292
14725,170798.4,299.149,298.305,0.669545
14737,170937.6,299.148,298.305,0.672977
14749,171076.8,299.149,298.305,0.677267
14761,171216,299.15,298.305,0.694426
14773,171355.2,299.148,298.305,0.693053
14785,171494.4,299.148,298.305,0.685846
14797,171633.6,299.148,298.305,0.694254
14809,171772.8,299.149,298.305,0.691337
14821,171912,299.149,298.305,0.697
14833,172051.2,299.15,298.305,0.723425
14845,172190.4,299.15,298.305,0.728229
14857,172329.6,299.15,298.304,0.727886
14869,172468.8,299.151,298.304,0.744531
14881,172608,299.15,298.304,0.746933
14893,172747.2,299.152,298.304,0.746418
14897,172793.6,299.151,298.305,0.75311