File: z_unorganized_archive/i_data_processed/27Sep/2.842wt%_climb_proc.txt
 Index  Time(s)  Furnace Temperature(K)  Sample Temperature(K)  HeatFlow(mW)  Q_Corrected       Fc
  6001 106200.0              110.124             107.18     -1.276255    -0.792266      NaN
  6014 106430.1              110.512             107.398     -1.366372    -0.865898      NaN
  6027 106660.2              110.897             107.627     -1.436044    -0.942573      NaN
  6040 106890.3              111.28             107.867     -1.514163    -1.024917      NaN
  6053 107120.4              111.665             108.117     -1.585071    -1.083041      NaN
  6066 107350.5              112.049             108.376     -1.650525    -1.164782      NaN
  6079 107580.6              112.433             108.643     -1.711909    -1.219567      NaN
  6092 107810.7              112.819             108.918     -1.767446    -1.273764      NaN
  6105 108040.8              113.202             109.201     -1.821555    -1.331795      NaN
  6118 108270.9              113.588             109.49     -1.869878    -1.382801      NaN
  6131 108501.0              113.971             109.786     -1.921542    -1.426624      NaN
  6144 108731.1              114.355             110.088     -1.965993    -1.466320      NaN
  6157 108961.2              114.739             110.394     -2.000108    -1.504978      NaN
  6170 109191.3              115.123             110.707     -2.040181    -1.542157      NaN
  6183 109421.4              115.507             111.024     -2.070168    -1.579789      NaN
  6196 109651.5              115.892             111.344     -2.116017    -1.627081      NaN
  6209 109881.6              116.274             111.671     -2.149755    -1.658543      NaN
  6222 110111.7              116.658             111.999     -2.173560    -1.679760      NaN
  6235 110341.8              117.042             112.333     -2.204662    -1.714167      NaN
  6248 110571.9              117.426             112.669     -2.226118    -1.730240      NaN
  6261 110802.0              117.809             113.008     -2.257969    -1.768498      NaN
  6274 111032.1              118.191             113.349     -2.280583    -1.783242      NaN
  6287 111262.2              118.575             113.693     -2.299637    -1.806222      NaN
  6300 111492.3              118.959             114.039     -2.319283    -1.754676      NaN
  6313 111722.4              119.344             114.388     -2.343088    -1.677917      NaN
  6326 111952.5              119.725             114.739     -2.372187    -1.613187      NaN
  6339 112182.6              120.103             115.092     -2.384792    -1.580602      NaN
  6352 112412.7              120.488             115.445     -2.407549    -1.559600      NaN
  6365 112642.8              120.877             115.801     -2.422883    -1.534748      NaN
  6378 112872.9              121.264             116.159     -2.439872    -1.523181      NaN
  6391 113103.0              121.65             116.519     -2.463654    -1.517018      NaN
  6404 113333.1              122.028             116.879     -2.474530    -1.491620      NaN
  6417 113563.2              122.405             117.241     -2.500454    -1.488248      NaN
  6430 113793.3              122.789             117.603     -2.517319    -1.474442      NaN
  6443 114023.4              123.181             117.967     -2.541064    -1.476612      NaN
  6456 114253.5              123.569             118.333     -2.566059    -1.481408      NaN
  6469 114483.6              123.951             118.699     -2.584144    -1.468391      NaN
  6482 114713.7              124.326             119.066     -2.619067    -1.484030      NaN
  6495 114943.8              124.701             119.433     -2.640450    -1.484415      NaN
  6508 115173.9              125.084             119.8     -2.657569    -1.486471      NaN
  6521 115404.0              125.473             120.168     -2.692315    -1.491363      NaN
  6534 115634.1              125.866             120.538     -2.712870    -1.504110      NaN
  6547 115864.2              126.25             120.907     -2.744361    -1.524227      NaN
  6560 116094.3              126.63             121.278     -2.755766    -1.512245      NaN
  6573 116324.4              127.017             121.65     -2.770331    -1.516253      NaN
  6586 116554.5              127.402             122.022     -2.759145    -1.500335      NaN
  6599 116784.6              127.779             122.394     -2.746607    -1.470779      NaN
  6612 117014.7              128.158             122.766     -2.736031    -1.463412      NaN
  6625 117244.8              128.544             123.139     -2.725319    -1.428363      NaN
  6638 117474.9              128.932             123.511     -2.722282    -1.427143      NaN
  6651 117705.0              129.32             123.886     -2.718693    -1.408380      NaN
  6664 117935.1              129.706             124.261     -2.722990    -1.413089      NaN
  6677 118165.2              130.089             124.636     -2.726830    -1.406065      NaN
  6690 118395.3              130.466             125.011     -2.739292    -1.410405      NaN
  6703 118625.4              130.845             125.386     -2.729525    -1.407968      NaN
  6716 118855.5              131.23             125.761     -2.732616    -1.398883      NaN
  6729 119085.6              131.616             126.137     -2.734629    -1.401460      NaN
  6742 119315.7              131.997             126.513     -2.728380    -1.389019      NaN
  6755 119545.8              132.38             126.888     -2.734906    -1.384999      NaN
  6768 119775.9              132.771             127.264     -2.741476    -1.398641      NaN
  6781 120006.0              133.156             127.641     -2.743436    -1.394524      NaN
  6794 120236.1              133.533             128.017     -2.755202    -1.396155      NaN
  6807 120466.2              133.912             128.395     -2.754769    -1.402495      NaN
  6820 120696.3              134.299             128.77     -2.749479    -1.408603      NaN
  6833 120926.4              134.691             129.147     -2.759179    -1.410266      NaN
  6846 121156.5              135.084             129.526     -2.768576    -1.415431      NaN
  6859 121386.6              135.467             129.906     -2.768263    -1.418701      NaN
  6872 121616.7              135.844             130.286     -2.782214    -1.429028      NaN
  6885 121846.8              136.224             130.665     -2.772757    -1.417401      NaN
  6898 122076.9              136.601             131.045     -2.780943    -1.424014      NaN
  6911 122307.0              136.979             131.423     -2.774724    -1.413372      NaN
  6924 122537.1              137.362             131.802     -2.769478    -1.416551      NaN
  6937 122767.2              137.746             132.179     -2.782361    -1.432992      NaN
  6950 122997.3              138.13             132.557     -2.778078    -1.422031      NaN
  6963 123227.4              138.521             132.935     -2.779064    -1.434789      NaN
  6976 123457.5              138.914             133.314     -2.787536    -1.435758      NaN
  6989 123687.6              139.303             133.695     -2.799720    -1.451750      NaN
  7002 123917.7              139.677             134.075     -2.797049    -1.456235      NaN
  7015 124147.8              140.059             134.455     -2.806031    -1.466730      NaN
  7028 124377.9              140.442             134.835     -2.803740    -1.467625      NaN
  7041 124608.0              140.827             135.216     -2.819726    -1.474207      NaN
  7054 124838.1              141.199             135.596     -2.815857    -1.476870      NaN
  7067 125068.2              141.577             135.976     -2.806173    -1.468118      NaN
  7080 125298.3              141.96             136.354     -2.810383    -1.483799      NaN
  7093 125528.4              142.352             136.733     -2.811927    -1.489829      NaN
  7106 125758.5              142.742             137.111     -2.812457    -1.484881      NaN
  7119 125988.6              143.129             137.491     -2.823207    -1.502862      NaN
  7132 126218.7              143.506             137.871     -2.824890    -1.497437      NaN
  7145 126448.8              143.887             138.25     -2.822034    -1.500408      NaN
  7158 126678.9              144.275             138.63     -2.825826    -1.524244      NaN
  7171 126909.0              144.667             139.011     -2.828902    -1.521023      NaN
  7184 127139.1              145.053             139.392     -2.840764    -1.534804      NaN
  7197 127369.2              145.431             139.775     -2.844232    -1.533375      NaN
  7210 127599.3              145.808             140.156     -2.840742    -1.538877      NaN
  7223 127829.4              146.186             140.537     -2.839521    -1.535479      NaN
  7236 128059.5              146.567             140.916     -2.834670    -1.541989      NaN
  7249 128289.6              146.955             141.297     -2.840211    -1.537769      NaN
  7262 128519.7              147.349             141.678     -2.845595    -1.550679      NaN
  7275 128749.8              147.733             142.06     -2.857446    -1.579432      NaN
  7288 128979.9              148.109             142.442     -2.851754    -1.570170      NaN
  7301 129210.0              148.487             142.824     -2.843890    -1.557137      NaN
  7314 129440.1              148.866             143.204     -2.846403    -1.565735      NaN
  7327 129670.2              149.25             143.584     -2.847480    -1.576333      NaN
  7340 129900.3              149.639             143.964     -2.841068    -1.566345      NaN
  7353 130130.4              150.03             144.345     -2.841989    -1.569278      NaN
  7366 130360.5              150.414             144.727     -2.838711    -1.574106      NaN
  7379 130590.6              150.793             145.11     -2.822324    -1.551228      NaN
  7392 130820.7              151.175             145.491     -2.819311    -1.561033      NaN
  7405 131050.8              151.561             145.873     -2.803275    -1.549318      NaN
  7418 131280.9              151.943             146.255     -2.771439    -1.507572      NaN
  7431 131511.0              152.326             146.637     -2.749287    -1.489988      NaN
  7444 131741.1              152.707             147.018     -2.705273    -1.450793      NaN
  7457 131971.2              153.089             147.399     -2.643134    -1.395799      NaN
  7470 132201.3              153.474             147.781     -2.582007    -1.338654      NaN
  7483 132431.4              153.863             148.163     -2.495125    -1.248431      NaN
  7496 132661.5              154.252             148.546     -2.393110    -1.152974      NaN
  7509 132891.6              154.638             148.929     -2.271370    -1.038538      NaN
  7522 133121.7              155.016             149.312     -2.109069    -0.877027      NaN
  7535 133351.8              155.394             149.695     -1.874894    -0.651900      NaN
  7548 133581.9              155.778             150.078     -1.642428    -0.418896      NaN
  7561 133812.0              156.167             150.46     -1.365316    -0.134803      NaN
  7574 134042.1              156.557             150.845     -1.052994     0.180362      NaN
  7587 134272.2              156.936             151.229     -0.711438     0.512176      NaN
  7600 134502.3              157.313             151.613     -0.416101     0.805232      NaN
  7613 134732.4              157.695             151.997     -0.121619     1.101795      NaN
  7626 134962.5              158.082             152.38      0.146088     1.363420      NaN
  7639 135192.6              158.472             152.765      0.396572     1.604788      NaN
  7652 135422.7              158.853             153.149      0.587818     1.797130      NaN
  7665 135652.8              159.228             153.533      0.702163     1.911799      NaN
  7678 135882.9              159.609             153.917      0.694203     1.904170      NaN
  7691 136113.0              159.998             154.301      0.466764     1.663402      NaN
  7704 136343.1              160.382             154.685     -0.012346     1.182379      NaN
  7717 136573.2              160.763             155.068     -0.673287     0.521041      NaN
  7730 136803.3              161.145             155.452     -1.374611    -0.176142      NaN
  7743 137033.4              161.53             155.835     -1.981249    -0.792215      NaN
  7756 137263.5              161.912             156.217     -2.382702    -1.198293      NaN
  7769 137493.6              162.295             156.601     -2.588915    -1.410110      NaN
  7782 137723.7              162.681             156.984     -2.697237    -1.520007      NaN
  7795 137953.8              163.069             157.368     -2.738091    -1.560684      NaN
  7808 138183.9              163.457             157.752     -2.744931    -1.572572      NaN
  7821 138414.0              163.837             158.137     -2.760964    -1.595623      NaN
  7834 138644.1              164.214             158.521     -2.775362    -1.615027      NaN
  7847 138874.2              164.598             158.904     -2.814601    -1.656038      NaN
  7860 139104.3              164.987             159.288     -2.808229    -1.651920      NaN
  7873 139334.4              165.375             159.672     -2.799329    -1.646252      NaN
  7886 139564.5              165.76             160.058     -2.763593    -1.615462      NaN
  7899 139794.6              166.141             160.443     -2.791540    -1.640458      NaN
  7912 140024.7              166.521             160.829     -2.818493    -1.682884      NaN
  7925 140254.8              166.903             161.214     -2.839149    -1.724593      NaN
  7938 140484.9              167.286             161.599     -2.849909    -1.736753      NaN
  7951 140715.0              167.672             161.984     -2.815601    -1.710912      NaN
  7964 140945.1              168.057             162.37     -2.821049    -1.711382      NaN
  7977 141175.2              168.44             162.755     -2.800259    -1.685632      NaN
  7990 141405.3              168.82             163.141     -2.757241    -1.662943      NaN
  8003 141635.4              169.2             163.525     -2.758877    -1.666640      NaN
  8016 141865.5              169.58             163.911     -2.780333    -1.681665      NaN
  8029 142095.6              169.96             164.295     -2.737033    -1.632192      NaN
  8042 142325.7              170.347             164.679     -2.801835    -1.708468      NaN
  8055 142555.8              170.736             165.063     -2.813323    -1.723911      NaN
  8068 142785.9              171.123             165.447     -2.800644    -1.714927      NaN
  8081 143016.0              171.506             165.832     -2.801841    -1.731583      NaN
  8094 143246.1              171.89             166.217     -2.841883    -1.776706      NaN
  8107 143476.2              172.274             166.603     -2.820183    -1.764863      NaN
  8120 143706.3              172.656             166.988     -2.835237    -1.790697      NaN
  8133 143936.4              173.041             167.373     -2.868235    -1.805310      NaN
  8146 144166.5              173.428             167.758     -2.853017    -1.789884      NaN
  8159 144396.6              173.806             168.144     -2.815297    -1.742676      NaN
  8172 144626.7              174.184             168.53     -2.794142    -1.741043      NaN
  8185 144856.8              174.568             168.914     -2.860900    -1.828914      NaN
  8198 145086.9              174.953             169.299     -2.886761    -1.861843      NaN
  8211 145317.0              175.334             169.683     -2.965026    -1.933438      NaN
  8224 145547.1              175.718             170.067     -3.141554    -2.105437      NaN
  8237 145777.2              176.102             170.452     -3.587464    -2.595161      NaN
  8250 146007.3              176.486             170.836     -5.194811    -4.190391      NaN
  8263 146237.4              176.87             171.22     -7.180424    -6.183193      NaN
  8276 146467.5              177.257             171.604     -3.849291    -2.881516      NaN
  8289 146697.6              177.645             171.988      0.887161     1.880633      NaN
  8302 146927.7              178.027             172.374      0.159691     1.112113      NaN
  8315 147157.8              178.408             172.759     -1.511026    -0.553042      NaN
  8328 147387.9              178.787             173.144     -2.359528    -1.401363      NaN
  8341 147618.0              179.169             173.529     -2.656417    -1.728812      NaN
  8354 147848.1              179.557             173.913     -2.810826    -1.907177      NaN
  8367 148078.2              179.945             174.298     -2.878751    -1.943952      NaN
  8380 148308.3              180.329             174.683     -2.899302    -1.961497      NaN
  8393 148538.4              180.708             175.067     -2.981677    -2.035314      NaN
  8406 148768.5              181.09             175.452     -3.302398    -2.403667 0.913450
  8419 148998.6              181.475             175.837     -4.740721    -3.817006 0.913269
  8432 149228.7              181.86             176.222    -14.9385   -14.017 0.913089
  8445 149458.8              182.24             176.607    -11.2011   -10.2712 0.912907
  8458 149688.9              182.625             176.991    -20.3694   -19.4803 0.912725
  8471 149919.0              183.01             177.375    -13.5075   -12.6415 0.912542
  8484 150149.1              183.395             177.76     -6.575060    -5.710774 0.912359
  8497 150379.2              183.775             178.145     -4.354443    -3.513599 0.912174
  8510 150609.3              184.156             178.53     -3.466137    -2.649583 0.911988
  8523 150839.4              184.544             178.915     -3.135375    -2.345546 0.911802
  8536 151069.5              184.93             179.301     -3.008426    -2.213803 0.911615
  8549 151299.6              185.312             179.686     -2.956116    -2.172177 0.911427
  8562 151529.7              185.69             180.072     -3.051635    -2.279257 0.911238
  8575 151759.8              186.075             180.457     -2.991453    -2.234910 0.911048
  8588 151989.9              186.462             180.841     -2.911145    -2.133245 0.910858
  8601 152220.0              186.849             181.227     -2.954085    -2.166419 0.910666
  8614 152450.1              187.228             181.613     -2.928491    -2.210827 0.910473
  8627 152680.2              187.609             181.999     -2.927595    -2.179804 0.910280
  8640 152910.3              187.995             182.386     -3.010744    -2.296432 0.910085
  8653 153140.4              188.382             182.77     -3.057416    -2.307203 0.909890
  8666 153370.5              188.766             183.156     -3.123186    -2.444322 0.909693
  8679 153600.6              189.144             183.543     -3.127340    -2.471842 0.909495
  8692 153830.7              189.521             183.927     -3.086284    -2.463943 0.909297
  8705 154060.8              189.905             184.312     -3.081003    -2.444078 0.909099
  8718 154290.9              190.294             184.696     -3.067258    -2.409753 0.908899
  8731 154521.0              190.683             185.082     -3.071056    -2.430062 0.908697
  8744 154751.1              191.07             185.468     -3.047580    -2.454684 0.908494
  8757 154981.2              191.447             185.853     -3.095090    -2.493867 0.908291
  8770 155211.3              191.827             186.238     -3.122602    -2.534406 0.908086
  8783 155441.4              192.213             186.623     -3.117556    -2.502406 0.907881
  8796 155671.5              192.601             187.009     -3.090238    -2.474799 0.907673
  8809 155901.6              192.982             187.394     -3.049540    -2.409908 0.907465
  8822 156131.7              193.362             187.78     -3.062308    -2.536028 0.907255
  8835 156361.8              193.746             188.165     -3.019528    -2.486877 0.907044
  8848 156591.9              194.135             188.551     -3.068744    -2.416205 0.906832
  8861 156822.0              194.517             188.938     -2.979383    -2.396169 0.906618
  8874 157052.1              194.896             189.323     -2.934910    -2.351139 0.906404
  8887 157282.2              195.279             189.708     -2.931927    -2.472545 0.906188
  8900 157512.3              195.668             190.095     -3.035472    -2.539842 0.905970
  8913 157742.4              196.052             190.481     -3.043159    -2.471291 0.905751
  8926 157972.5              196.433             190.867     -3.006370    -2.486640 0.905531
  8939 158202.6              196.818             191.253     -2.876680    -2.316545 0.905309
  8952 158432.7              197.203             191.639     -2.869914    -2.404094 0.905086
  8965 158662.8              197.582             192.026     -3.078222    -2.596214 0.904861
  8978 158892.9              197.961             192.411     -3.045756    -2.537152 0.904635
  8991 159123.0              198.346             192.797     -2.973720    -2.491187 0.904408
  9004 159353.1              198.734             193.182     -3.014240    -2.476304 0.904180
  9017 159583.2              199.118             193.568     -3.000514    -2.442001 0.903949
  9030 159813.3              199.501             193.954     -3.070056    -2.553599 0.903717
  9043 160043.4              199.882             194.34     -3.085811    -2.664289 0.903483
  9056 160273.5              200.26             194.725     -2.880899    -2.411945 0.903249
  9069 160503.6              200.64             195.109     -2.904344    -2.488611 0.903012
  9082 160733.7              201.026             195.493     -2.883317    -2.494166 0.902775
  9095 160963.8              201.418             195.877     -2.850870    -2.418940 0.902536
  9108 161193.9              201.803             196.261     -2.809329    -2.401785 0.902295
  9121 161424.0              202.184             196.647     -2.802213    -2.426725 0.902051
  9134 161654.1              202.563             197.031     -2.943304    -2.633887 0.901807
  9147 161884.2              202.949             197.415     -3.000073    -2.697027 0.901560
  9160 162114.3              203.335             197.8     -2.922086    -2.597374 0.901312
  9173 162344.4              203.716             198.185     -2.880412    -2.499898 0.901061
  9186 162574.5              204.1             198.57     -2.940765    -2.615763 0.900809
  9199 162804.6              204.486             198.954     -2.956182    -2.560590 0.900555
  9212 163034.7              204.872             199.338     -2.905459    -2.493519 0.900299
  9225 163264.8              205.25             199.723     -2.824030    -2.391313 0.900040
  9238 163494.9              205.63             200.107     -2.943956    -2.642366 0.899780
  9251 163725.0              206.017             200.492     -2.952872    -2.635089 0.899518
  9264 163955.1              206.403             200.876     -2.948348    -2.569911 0.899254
  9277 164185.2              206.785             201.261     -2.850628    -2.518346 0.898987
  9290 164415.3              207.17             201.645     -2.796335    -2.433997 0.898718
  9303 164645.4              207.554             202.031     -2.882248    -2.565093 0.898446
  9316 164875.5              207.939             202.416     -2.783989    -2.420164 0.898173
  9329 165105.6              208.322             202.801     -2.885314    -2.626821 0.897897
  9342 165335.7              208.698             203.186     -2.926110    -2.624774 0.897618
  9355 165565.8              209.081             203.569     -2.944423    -2.647635 0.897339
  9368 165795.9              209.466             203.954     -2.835434    -2.500983 0.897056
  9381 166026.0              209.857             204.339     -2.893478    -2.663004 0.896771
  9394 166256.1              210.24             204.723     -2.979323    -2.817398 0.896483
  9407 166486.2              210.62             205.108     -2.776937    -2.716257 0.896192
  9420 166716.3              211.003             205.493     -2.834930    -2.842036 0.895899
  9433 166946.4              211.391             205.878     -2.877753    -2.790695 0.895602
  9446 167176.5              211.774             206.263     -2.967968    -2.838257 0.895304
  9459 167406.6              212.153             206.648     -2.927438    -2.885360 0.895002
  9472 167636.7              212.538             207.033     -2.980283    -2.851068 0.894698
  9485 167866.8              212.926             207.418     -2.817457    -2.657623 0.894390
  9498 168096.9              213.314             207.804     -2.990762    -2.954221 0.894079
  9511 168327.0              213.698             208.191     -2.915487    -2.933738 0.893764
  9524 168557.1              214.077             208.578     -2.956040    -2.826354 0.893446
  9537 168787.2              214.46             208.964     -2.948022    -2.857382 0.893126
  9550 169017.3              214.84             209.35     -2.927691    -2.842730 0.892803
  9563 169247.4              215.221             209.737     -3.044958    -2.854983 0.892475
  9576 169477.5              215.606             210.124     -3.030931    -2.777834 0.892144
  9589 169707.6              215.991             210.509     -3.064273    -2.895105 0.891811
  9602 169937.7              216.375             210.895     -2.991565    -2.776060 0.891474
  9615 170167.8              216.763             211.282     -2.896860    -2.743267 0.891133
  9628 170397.9              217.148             211.669     -2.802572    -2.662082 0.890788
  9641 170628.0              217.531             212.057     -2.963530    -2.791386 0.890439
  9654 170858.1              217.914             212.444     -2.678707    -2.606150 0.890086
  9667 171088.2              218.298             212.831     -2.772912    -2.739538 0.889729
  9680 171318.3              218.68             213.22     -2.832214    -2.815442 0.889367
  9693 171548.4              219.062             213.608     -3.085050    -3.143281 0.889002
  9706 171778.5              219.444             213.995     -3.093613    -3.156274 0.888633
  9719 172008.6              219.824             214.383     -3.123427    -3.224153 0.888261
  9732 172238.7              220.208             214.77     -3.098082    -3.137190 0.887884
  9745 172468.8              220.59             215.156     -2.997504    -2.990382 0.887503
  9758 172698.9              220.973             215.543     -2.906203    -2.876322 0.887117
  9771 172929.0              221.358             215.93     -2.936852    -2.872075 0.886728
  9784 173159.1              221.742             216.316     -3.039278    -3.045769 0.886333
  9797 173389.2              222.126             216.703     -3.042250    -3.292729 0.885934
  9810 173619.3              222.511             217.09     -2.807756    -3.004131 0.885530
  9823 173849.4              222.896             217.476     -2.994886    -3.159312 0.885121
  9836 174079.5              223.28             217.863     -2.800778    -2.753096 0.884707
  9849 174309.6              223.666             218.25     -2.998928    -3.052012 0.884287
  9862 174539.7              224.052             218.638     -3.061630    -3.167895 0.883861
  9875 174769.8              224.434             219.025     -3.080168    -3.037865 0.883430
  9888 174999.9              224.817             219.413     -3.086684    -3.156918 0.882993
  9901 175230.0              225.2             219.802     -3.058677    -3.114367 0.882550
  9914 175460.1              225.583             220.189     -3.045579    -3.061848 0.882101
  9927 175690.2              225.965             220.577     -3.119032    -3.072481 0.881647
  9940 175920.3              226.349             220.965     -3.085020    -3.129321 0.881186
  9953 176150.4              226.729             221.352     -2.989963    -3.081483 0.880720
  9966 176380.5              227.108             221.739     -3.181535    -3.343392 0.880248
  9979 176610.6              227.49             222.126     -3.068900    -3.211813 0.879769
  9992 176840.7              227.876             222.511     -3.194725    -3.345689 0.879285
 10005 177070.8              228.26             222.898     -3.052586    -3.269040 0.878793
 10018 177300.9              228.645             223.284     -2.919670    -3.081109 0.878295
 10031 177531.0              229.029             223.669     -2.901369    -3.023230 0.877790
 10044 177761.1              229.41             224.055     -2.820910    -3.067982 0.877278
 10057 177991.2              229.792             224.44     -2.961447    -3.060024 0.876759
 10070 178221.3              230.179             224.827     -3.018378    -3.026717 0.876230
 10083 178451.4              230.566             225.212     -3.235506    -3.348380 0.875695
 10096 178681.5              230.953             225.599     -3.321615    -3.411791 0.875149
 10109 178911.6              231.338             225.984     -3.309535    -3.469325 0.874597
 10122 179141.7              231.718             226.371     -3.191201    -3.383483 0.874034
 10135 179371.8              232.096             226.757     -3.186974    -3.282039 0.873464
 10148 179601.9              232.478             227.144     -3.170353    -3.444228 0.872884
 10161 179832.0              232.862             227.529     -3.098203    -3.310869 0.872296
 10174 180062.1              233.246             227.914     -3.134226    -3.248149 0.871699
 10187 180292.2              233.629             228.299     -3.223626    -3.459929 0.871092
 10200 180522.3              234.012             228.685     -3.213860    -3.423783 0.870474
 10213 180752.4              234.394             229.07     -3.229487    -3.357254 0.869847
 10226 180982.5              234.782             229.455     -3.329862    -3.327505 0.869208
 10239 181212.6              235.167             229.84     -3.244587    -3.367612 0.868560
 10252 181442.7              235.55             230.225     -3.211734    -3.372681 0.867899
 10265 181672.8              235.937             230.612     -3.479888    -3.733923 0.867225
 10278 181902.9              236.32             230.998     -3.468152    -3.738204 0.866539
 10291 182133.0              236.7             231.384     -3.458174    -3.683606 0.865842
 10304 182363.1              237.081             231.77     -3.446492    -3.617810 0.865131
 10317 182593.2              237.465             232.155     -3.101597    -3.386943 0.864408
 10330 182823.3              237.851             232.54     -3.284099    -3.758156 0.863672
 10343 183053.4              238.24             232.926     -3.283037    -3.574511 0.862921
 10356 183283.5              238.623             233.313     -3.327003    -3.658911 0.862153
 10369 183513.6              239.006             233.699     -3.446985    -3.749626 0.861372
 10382 183743.7              239.385             234.085     -3.414028    -3.693089 0.860574
 10395 183973.8              239.765             234.471     -3.402532    -3.838822 0.859762
 10408 184203.9              240.149             234.857     -3.445845    -3.808625 0.858933
 10421 184434.0              240.535             235.242     -3.502890    -3.775616 0.858090
 10434 184664.1              240.922             235.629     -3.648064    -4.072591 0.857225
 10447 184894.2              241.308             236.016     -3.671813    -3.986263 0.856342
 10460 185124.3              241.69             236.402     -3.790092    -4.242326 0.855441
 10473 185354.4              242.066             236.789     -3.743968    -4.106959 0.854521
 10486 185584.5              242.446             237.175     -3.513032    -3.913166 0.853583
 10499 185814.6              242.83             237.559     -3.683868    -4.011153 0.852627
 10512 186044.7              243.215             237.945     -3.929665    -4.191931 0.851648
 10525 186274.8              243.6             238.33     -3.972411    -4.340167 0.850647
 10538 186504.9              243.984             238.715     -4.061397    -4.336699 0.849623
 10551 186735.0              244.368             239.1     -3.991819    -4.402800 0.848576
 10564 186965.1              244.753             239.485     -3.961021    -4.462515 0.847505
 10577 187195.2              245.139             239.871     -3.796712    -4.346736 0.846407
 10590 187425.3              245.526             240.256     -3.854340    -4.326639 0.845283
 10603 187655.4              245.912             240.642     -3.849205    -4.153470 0.844129
 10616 187885.5              246.295             241.028     -3.927326    -4.228665 0.842948
 10629 188115.6              246.672             241.416     -3.793552    -4.151081 0.841733
 10642 188345.7              247.051             241.802     -4.053606    -4.351214 0.840492
 10655 188575.8              247.435             242.187     -4.174352    -4.436199 0.839222
 10668 188805.9              247.818             242.573     -4.078378    -4.373796 0.837916
 10681 189036.0              248.202             242.958     -3.985077    -4.486968 0.836578
 10694 189266.1              248.591             243.343     -4.139077    -4.559403 0.835205
 10707 189496.2              248.974             243.729     -4.216616    -4.675070 0.833794
 10720 189726.3              249.359             244.115     -4.523689    -4.804863 0.832341
 10733 189956.4              249.743             244.501     -4.584876    -4.766413 0.830852
 10746 190186.5              250.128             244.888     -4.519342    -4.958872 0.829314
 10759 190416.6              250.508             245.274     -4.591148    -5.111381 0.827735
 10772 190646.7              250.888             245.661     -4.730034    -5.157128 0.826112
 10785 190876.8              251.268             246.047     -4.817823    -5.357915 0.824442
 10798 191106.9              251.652             246.432     -4.911722    -5.347063 0.822728
 10811 191337.0              252.035             246.817     -4.861224    -5.234548 0.820962
 10824 191567.1              252.422             247.201     -4.848433    -5.232440 0.819148
 10837 191797.2              252.807             247.587     -5.098881    -5.523030 0.817273
 10850 192027.3              253.191             247.972     -5.269085    -5.768996 0.815340
 10863 192257.4              253.578             248.358     -5.173697    -5.772272 0.813342
 10876 192487.5              253.963             248.744     -5.286950    -5.780081 0.811280
 10889 192717.6              254.343             249.13     -5.518783    -5.937895 0.809155
 10902 192947.7              254.725             249.515     -5.601892    -6.026152 0.806962
 10915 193177.8              255.106             249.902     -5.778301    -6.160117 0.804691
 10928 193407.9              255.49             250.287     -5.875743    -6.320427 0.802350
 10941 193638.0              255.874             250.673     -5.850384    -6.356720 0.799928
 10954 193868.1              256.258             251.057     -5.978005    -6.363297 0.797428
 10967 194098.2              256.644             251.443     -6.056010    -6.429768 0.794831
 10980 194328.3              257.029             251.83     -6.305810    -6.703659 0.792141
 10993 194558.4              257.411             252.215     -6.423936    -6.876366 0.789363
 11006 194788.5              257.795             252.601     -6.646926    -7.177063 0.786474
 11019 195018.6              258.177             252.987     -6.739949    -7.439871 0.783478
 11032 195248.7              258.56             253.373     -6.923050    -7.746361 0.780377
 11045 195478.8              258.944             253.759     -7.050721    -7.633874 0.777152
 11058 195708.9              259.328             254.145     -7.270971    -7.655358 0.773805
 11071 195939.0              259.71             254.531     -7.429757    -7.725489 0.770330
 11084 196169.1              260.09             254.917     -7.591149    -7.960088 0.766709
 11097 196399.2              260.472             255.302     -7.903818    -8.253692 0.762961
 11110 196629.3              260.857             255.686     -8.064696    -8.536946 0.759055
 11123 196859.4              261.241             256.071     -8.317478    -8.706841 0.754987
 11136 197089.5              261.628             256.456     -8.585528    -9.078305 0.750747
 11149 197319.6              262.019             256.842     -8.839266    -9.284538 0.746308
 11162 197549.7              262.404             257.227     -9.112236    -9.534379 0.741679
 11175 197779.8              262.784             257.614     -9.462621    -9.758010 0.736828
 11188 198009.9              263.161             258.001     -9.908148   -10.2554 0.731745
 11201 198240.0              263.541             258.387    -10.2652   -10.6739 0.726445
 11214 198470.1              263.921             258.772    -10.5516   -10.8982 0.720907
 11227 198700.2              264.305             259.156    -10.8218   -11.1521 0.715112
 11240 198930.3              264.689             259.54    -11.3344   -11.5804 0.709018
 11253 199160.4              265.074             259.924    -11.7511   -12.0187 0.702630
 11266 199390.5              265.463             260.308    -12.4044   -12.7172 0.695900
 11279 199620.6              265.852             260.693    -12.907   -13.2545 0.688774
 11292 199850.7              266.234             261.079    -13.509   -13.8577 0.681257
 11305 200080.8              266.617             261.465    -14.1763   -14.6063 0.673291
 11318 200310.9              266.995             261.85    -14.9242   -15.4518 0.664899
 11331 200541.0              267.374             262.235    -15.761   -16.2301 0.655974
 11344 200771.1              267.758             262.619    -16.6389   -17.1023 0.646531
 11357 201001.2              268.143             263.004    -17.4783   -17.9387 0.636468
 11370 201231.3              268.527             263.388    -18.4925   -18.9537 0.625725
 11383 201461.4              268.913             263.771    -19.5846   -19.9777 0.614269
 11396 201691.5              269.301             264.156    -20.8451   -21.2437 0.601930
 11409 201921.6              269.688             264.541    -22.2397   -22.5321 0.588646
 11422 202151.7              270.071             264.927    -23.8389   -24.2394 0.574279
 11435 202381.8              270.454             265.313    -25.5524   -25.9338 0.558708
 11448 202611.9              270.837             265.698    -27.4255   -27.9487 0.541787
 11461 202842.0              271.219             266.085    -29.5134   -30.0179 0.523231
 11474 203072.1              271.6             266.471    -31.8782   -32.3975 0.502925
 11487 203302.2              271.98             266.856    -34.3318   -34.7587 0.480512
 11500 203532.3              272.358             267.241    -37.1134   -37.4568 0.455663
 11513 203762.4              272.741             267.625    -40.4475   -40.7416 0.427924
 11526 203992.5              273.127             268.009    -44.0331   -44.3963 0.396669
 11539 204222.6              273.512             268.393    -47.8428   -48.2617 0.361105
 11552 204452.7              273.895             268.776    -51.7756   -52.1814 0.320281
 11565 204682.8              274.281             269.159    -55.547   -55.9629 0.272590
 11578 204912.9              274.662             269.543    -58.6565   -59.0217 0.216170
 11591 205143.0              275.047             269.926    -61.4212   -61.7594 0.148173
 11604 205373.1              275.43             270.309    -61.9807   -62.3141 0.064143
 11617 205603.2              275.817             270.692    -61.9479   -62.3666      NaN
 11630 205833.3              276.203             271.075    -61.4885   -62.0144      NaN
 11643 206063.4              276.584             271.461    -53.9912   -54.5428      NaN
 11656 206293.5              276.966             271.844    -40.9902   -41.4074      NaN
 11669 206523.6              277.35             272.23    -21.4937   -21.8508      NaN
 11682 206753.7              277.737             272.615    -12.1205   -12.5403      NaN
 11695 206983.8              278.122             273.001     -8.470741    -8.927941      NaN
 11708 207213.9              278.502             273.388     -7.029625    -7.436329      NaN
 11721 207444.0              278.885             273.774     -6.420093    -6.818072      NaN
 11734 207674.1              279.268             274.161     -6.215734    -6.684587      NaN
 11747 207904.2              279.65             274.547     -6.105678    -6.499770      NaN
 11760 208134.3              280.036             274.932     -6.099700    -6.521505      NaN
 11773 208364.4              280.42             275.317     -6.057319    -6.536532      NaN
 11786 208594.5              280.803             275.703     -6.018072    -6.510514      NaN
 11799 208824.6              281.185             276.088     -6.028132    -6.521014      NaN
 11812 209054.7              281.568             276.474     -6.054675    -6.540622      NaN
 11825 209284.8              281.953             276.859     -6.027440    -6.575484      NaN
 11838 209514.9              282.34             277.245     -5.993066    -6.510980      NaN
 11851 209745.0              282.725             277.631     -6.026963    -6.613713      NaN
 11864 209975.1              283.106             278.017     -6.034385    -6.533598      NaN
 11877 210205.2              283.487             278.403     -6.027998    -6.456810      NaN
 11890 210435.3              283.871             278.788     -6.026794    -6.440491      NaN
 11903 210665.4              284.254             279.174     -6.029897    -6.480450      NaN
 11916 210895.5              284.637             279.559     -6.037168    -6.522210      NaN
 11929 211125.6              285.02             279.945     -6.034631    -6.616757      NaN
 11942 211355.7              285.403             280.33     -5.993079    -6.525345      NaN
 11955 211585.8              285.788             280.715     -5.984041    -6.458995      NaN
 11968 211815.9              286.174             281.1     -5.992160    -6.409687      NaN
 11981 212046.0              286.555             281.486     -6.001570    -6.462799      NaN
 11994 212276.1              286.938             281.87     -6.003703    -6.547672      NaN
 12007 212506.2              287.323             282.255     -6.012579    -6.598175      NaN
 12020 212736.3              287.707             282.64     -6.022732    -6.544372      NaN
 12033 212966.4              288.091             283.025     -6.020014    -6.490951      NaN
 12046 213196.5              288.474             283.411     -6.031739    -6.492811      NaN
 12059 213426.6              288.859             283.797     -6.028203    -6.476573      NaN
 12072 213656.7              289.238             284.182     -6.015004    -6.421155      NaN
 12085 213886.8              289.615             284.566     -6.011241    -6.446163      NaN
 12098 214116.9              289.998             284.95     -6.015962    -6.480692      NaN
 12111 214347.0              290.385             285.333     -6.006854    -6.449673      NaN
 12124 214577.1              290.769             285.717     -6.000343    -6.463351      NaN
 12137 214807.2              291.152             286.099     -5.975230    -6.461600      NaN
 12150 215037.3              291.535             286.482     -5.969156    -6.485605      NaN
 12163 215267.4              291.923             286.866     -5.960165    -6.469616      NaN
 12176 215497.5              292.305             287.25     -5.946933    -6.464276      NaN
 12189 215727.6              292.685             287.632     -5.930169    -6.461241      NaN
 12202 215957.7              293.068             288.015     -5.931186    -6.446062      NaN
 12215 216187.8              293.455             288.396     -5.915000    -6.405560      NaN
 12228 216417.9              293.841             288.779     -5.896328    -6.407509      NaN
 12241 216648.0              294.224             289.161     -5.892797    -6.414683      NaN
 12254 216878.1              294.609             289.545     -5.888167    -6.399550      NaN
 12267 217108.2              294.994             289.928     -5.894476    -6.404725      NaN
 12280 217338.3              295.376             290.312     -5.880213    -6.374153      NaN
 12293 217568.4              295.751             290.695     -5.874818    -6.371693      NaN
 12306 217798.5              296.133             291.076     -5.851466    -6.386180      NaN
 12319 218028.6              296.522             291.456     -5.815642    -6.369129      NaN
 12332 218258.7              296.908             291.838     -5.799634    -6.314810      NaN
 12345 218488.8              297.289             292.219     -5.793716    -6.266043      NaN
 12358 218718.9              297.673             292.599     -5.796800    -6.272596      NaN
 12371 218949.0              298.061             292.979     -5.803657    -6.276766      NaN
 12384 219179.1              298.442             293.359     -5.796824    -6.251426      NaN
 12397 219409.2              298.819             293.738     -5.779995    -6.286745      NaN
 12410 219639.3              299.201             294.115     -5.768042    -6.272974      NaN
 12423 219869.4              299.59             294.49     -5.734860    -6.262026      NaN
 12436 220099.5              299.974             294.868     -5.717723    -6.211832      NaN
 12449 220329.6              300.356             295.247     -5.713979    -6.175940      NaN
 12462 220559.7              300.742             295.629     -5.738461    -6.207572      NaN
 12475 220789.8              301.127             296.013     -5.753499    -6.223971      NaN
 12488 221019.9              301.504             296.398     -5.773035    -6.241716      NaN
 12501 221250.0              301.891             296.782     -5.786594    -6.276770      NaN
 12514 221480.1              302.28             297.166     -5.795258    -6.272613      NaN
 12527 221710.2              302.658             297.551     -5.793980    -6.281264      NaN
 12540 221940.3              303.038             297.935     -5.787218    -6.269738      NaN
 12553 222170.4              303.426             298.318     -5.779683    -6.270200      NaN
 12566 222400.5              303.817             298.702     -5.766984    -6.251169      NaN
 12579 222630.6              304.202             299.087     -5.766500    -6.252741      NaN
 12592 222860.7              304.585             299.473     -5.779712    -6.282318      NaN
 12605 223090.8              304.966             299.858     -5.786953    -6.283407      NaN
 12618 223320.9              305.339             300.244     -5.793714    -6.293962      NaN
 12631 223551.0              305.716             300.626     -5.769095    -6.270868      NaN
 12644 223781.1              306.101             301.008     -5.757987    -6.266163      NaN
 12657 224011.2              306.494             301.39     -5.729701    -6.239052      NaN
 12670 224241.3              306.877             301.771     -5.721494    -6.229581      NaN
 12683 224471.4              307.259             302.154     -5.710826    -6.250363      NaN
 12696 224701.5              307.645             302.536     -5.712828    -6.260484      NaN
 12709 224931.6              308.032             302.918     -5.701762    -6.246405      NaN
 12722 225161.7              308.41             303.301     -5.686185    -6.229036      NaN
 12735 225391.8              308.791             303.682     -5.671571    -6.217843      NaN
 12748 225621.9              309.177             304.064     -5.673809    -6.238778      NaN
 12761 225852.0              309.566             304.446     -5.669860    -6.243968      NaN
 12774 226082.1              309.945             304.829     -5.666170    -6.234664      NaN
 12787 226312.2              310.328             305.211     -5.659560    -6.230770      NaN
 12800 226542.3              310.713             305.594     -5.658537    -6.252222      NaN
 12813 226772.4              311.099             305.978     -5.656168    -6.248748      NaN
 12826 227002.5              311.476             306.36     -5.655806    -6.246243      NaN
 12839 227232.6              311.861             306.743     -5.645791    -6.260402      NaN
 12852 227462.7              312.249             307.126     -5.644089    -6.255168      NaN
 12865 227692.8              312.631             307.51     -5.634731    -6.254044      NaN
 12878 227922.9              313.012             307.894     -5.635154    -6.278433      NaN
 12891 228153.0              313.396             308.276     -5.629959    -6.297703      NaN
 12900 228312.3              313.666             308.541     -5.624466    -6.302053      NaN