File: i_data/water_tests/archive/2014_blank.csv
Blank_run_033114,,,,
Creation Date : 3/2/2023 1:35:40 PM,,,,
User : admin,,,,
,,,,
HeatFlow :,,,,
 Initial Mass : 0 mg,,,,
 Molar Mass : N/A,,,,
,,,,
Index,Time(s),Furnace Temperature(K),Sample Temperature(K),HeatFlow(mW)
1,0,293.168,291.707,106.1
13,189.6,286.946,291.545,48.0043
25,379.2,282.524,291.029,21.7109
37,568.8,278.881,290.256,9.925381
49,758.4,275.739,289.287,4.745472
61,948,272.971,288.173,2.5177
73,1137.6,270.502,286.949,1.583416
85,1327.2,268.274,285.645,1.253249
97,1516.8,266.193,284.284,1.181202
109,1706.4,264.202,282.874,1.218943
121,1896,262.296,281.429,1.370857
133,2085.6,260.477,279.958,1.444071
145,2275.2,258.745,278.47,1.625164
157,2464.8,257.106,276.971,1.853234
169,2654.4,255.511,275.47,2.138773
181,2844,253.934,273.966,2.269346
193,3033.6,252.392,272.464,2.493329
205,3223.2,250.896,270.965,2.612164
217,3412.8,249.452,269.473,2.763501
229,3602.4,248.009,267.99,2.800767
241,3792,246.52,266.512,3.057722
253,3981.6,245.016,265.036,3.098958
265,4171.2,243.533,263.565,3.289962
277,4360.8,242.096,262.098,3.448679
289,4550.4,240.713,260.64,3.588564
301,4740,239.348,259.194,3.778144
313,4929.6,237.929,257.756,4.021044
325,5119.2,236.481,256.321,3.965286
337,5308.8,235.047,254.89,3.879961
349,5498.4,233.657,253.465,3.987339
361,5688,232.323,252.049,4.115531
373,5877.6,231.039,250.645,4.027938
385,6067.2,229.728,249.255,4.27271
397,6256.8,228.395,247.871,4.35912
409,6446.4,227.077,246.4965,4.441401
421,6636,225.794,245.13,4.462868
433,6825.6,224.57,243.776,4.539615
445,7015.2,223.409,242.438,4.536412
457,7204.8,222.238,241.116,4.774004
469,7394.4,221.015,239.806,4.830104
481,7584,219.77,238.504,4.781325
493,7773.6,218.542,237.209,4.861073
505,7963.2,217.347,235.925,5.109383
517,8152.8,216.228,234.652,5.14561
529,8342.4,215.189,233.397,5.21708
541,8532,214.211,232.163,5.164279
553,8721.6,213.254,230.949,5.478304
565,8911.2,212.264,229.755,5.548988
577,9100.8,211.253,228.576,5.512219
589,9290.4,210.252,227.413,5.327028
601,9480,209.273,226.263,5.299005
613,9669.6,208.335,225.129,5.738493
625,9859.2,207.398,224.0115,6.085506
637,10048.8,206.425,222.906,5.975165
649,10238.4,205.445,221.812,5.937624
661,10428,204.482,220.729,6.215254
673,10617.6,203.553,219.658,6.663129
685,10807.2,202.661,218.598,6.756614
697,10996.8,201.771,217.554,6.116388
709,11186.4,200.825,216.52,5.628001
721,11376,199.846,215.493,5.490925
733,11565.6,198.878,214.471,6.192263
745,11755.2,197.946,213.455,5.969663
757,11944.8,197.053,212.447,5.786512
769,12134.4,196.208,211.452,6.631807
781,12324,195.357,210.469,6.244473
793,12513.6,194.501,209.495,5.89725
805,12703.2,193.657,208.532,5.438019
817,12892.8,192.838,207.579,5.299032
829,13082.4,192.062,206.639,5.274251
841,13272,191.31,205.711,5.271416
853,13461.6,190.549,204.796,5.605194
865,13651.2,189.79,203.893,5.648535
877,13840.8,189.054,203,5.396869
889,14030.4,188.348,202.121,5.114947
901,14220,187.667,201.256,5.047961
913,14409.6,186.96,200.402,4.864834
925,14599.2,186.217,199.558,4.390751
937,14788.8,185.468,198.721,3.992637
949,14978.4,184.736,197.892,3.61523
961,15168,184.045,197.07,3.267572
973,15357.6,183.39,196.261,3.111444
985,15547.2,182.728,195.463,3.199255
997,15736.8,182.016,194.672,3.814468
1009,15926.4,181.281,193.887,4.053929
1021,16116,180.557,193.106,3.396979
1033,16305.6,179.863,192.331,3.401438
1045,16495.2,179.212,191.563,3.273043
1057,16684.8,178.583,190.805,3.672603
1069,16874.4,177.918,190.055,3.37904
1081,17064,177.216,189.311,3.432794
1093,17253.6,176.505,188.568,3.021628
1105,17443.2,175.8133,187.83,2.453728
1117,17632.8,175.162,187.098,2.124495
1129,17822.4,174.555,186.373,2.331703
1141,18012,173.956,185.657,2.214399
1153,18201.6,173.345,184.948,2.119661
1165,18391.2,172.739,184.246,2.059263
1177,18580.8,172.155,183.553,2.200294
1189,18770.4,171.599,182.867,2.606744
1201,18960,171.06,182.19,2.880459
1213,19149.6,170.502,181.523,2.787462
1225,19339.2,169.929,180.863,2.537353
1237,19528.8,169.36,180.208,2.702892
1249,19718.4,168.811,179.56,2.331805
1261,19908,168.291,178.919,2.134007
1273,20097.6,167.789,178.288,1.833343
1285,20287.2,167.269,177.664,1.70335
1297,20476.8,166.713,177.046,2.099222
1309,20666.4,166.144,176.431,1.878963
1321,20856,165.586,175.821,1.64556
1333,21045.6,165.055,175.214,1.715207
1345,21235.2,164.552,174.616,2.330185
1357,21424.8,164.066,174.023,2.582079
1369,21614.4,163.576,173.438,2.940083
1381,21804,163.085,172.858,2.698459
1393,21993.6,162.606,172.284,2.635435
1405,22183.2,162.137,171.717,2.769202
1417,22372.8,161.646,171.156,2.774811
1429,22562.4,161.122,170.598,2.653955
1441,22752,160.589,170.043,2.84119
1453,22941.6,160.068,169.489,2.850821
1465,23131.2,159.573,168.939,3.378206
1477,23320.8,159.109,168.394,2.687559
1489,23510.4,158.654,167.855,2.226361
1501,23700,158.199,167.321,2.699941
1513,23889.6,157.75,166.793,2.639646
1525,24079.2,157.318,166.269,2.785627
1537,24268.8,156.884,165.752,3.115017
1549,24458.4,156.431,165.239,2.726836
1561,24648,155.965,164.73,1.841128
1573,24837.6,155.505,164.225,2.15667
1585,25027.2,155.065,163.722,2.507298
1597,25216.8,154.65,163.224,2.632353
1609,25406.4,154.239,162.732,2.717646
1621,25596,153.805,162.244,3.022963
1633,25785.6,153.347,161.759,2.377638
1645,25975.2,152.884,161.276,2.173034
1657,26164.8,152.435,160.795,2.215839
1669,26354.4,152.009,160.315,1.677254
1681,26544,151.607,159.842,1.895001
1693,26733.6,151.217,159.372,2.124907
1705,26923.2,150.833,158.908,2.204712
1717,27112.8,150.458,158.449,2.035738
1729,27302.4,150.085,157.995,2.055124
1741,27492,149.715,157.547,2.067891
1753,27681.6,149.352,157.103,2.462137
1765,27871.2,148.983,156.664,1.904049
1777,28060.8,148.599,156.229,1.923445
1789,28250.4,148.212,155.797,1.925652
1801,28440,147.834,155.368,2.200663
1813,28629.6,147.473,154.943,2.054329
1825,28819.2,147.116,154.521,1.927645
1837,29008.8,146.752,154.104,1.921352
1849,29198.4,146.391,153.689,1.708572
1861,29388,146.041,153.279,1.607108
1873,29577.6,145.69,152.872,1.849297
1885,29767.2,145.324,152.468,1.984437
1897,29956.8,144.955,152.066,2.094498
1909,30146.4,144.596,151.667,1.861927
1921,30336,144.254,151.271,1.715503
1933,30525.6,143.923,150.878,1.690951
1945,30715.2,143.592,150.489,1.730798
1957,30904.8,143.268,150.104,1.919432
1969,31094.4,142.939,149.722,1.956095
1981,31284,142.591,149.343,1.759077
1993,31473.6,142.235,148.965,1.737755
2005,31663.2,141.883,148.59,1.652987
2017,31852.8,141.546,148.2153,1.83419
2029,32042.4,141.214,147.843,1.860048
2041,32232,140.868,147.474,1.785214
2053,32421.6,140.516,147.1061,2.090962
2065,32611.2,140.174,146.739,1.964082
2077,32800.8,139.832,146.374,1.45428
2089,32990.4,139.46,146.009,1.378178
2101,33180,139.049,145.643,1.18108
2113,33369.6,138.614,145.274,1.482734
2125,33559.2,138.19,144.901,1.65476
2137,33748.8,137.797,144.526,1.704777
2149,33938.4,137.436,144.152,2.153256
2161,34128,137.072,143.779,2.105576
2173,34317.6,136.655,143.405,2.146319
2185,34507.2,136.182,143.027,2.151412
2197,34696.8,135.697,142.642,2.136481
2209,34886.4,135.232,142.254,1.896871
2221,35076,134.807,141.862,1.84412
2233,35265.6,134.423,141.47,1.744003
2245,35455.2,134.061,141.08,1.824803
2257,35644.8,133.719,140.692,1.541254
2269,35834.4,133.367,140.307,1.616008
2281,36024,132.962,139.922,1.77814
2293,36213.6,132.525,139.535,1.957527
2305,36403.2,132.098,139.145,1.947514
2317,36592.8,131.699,138.755,2.085137
2329,36782.4,131.314,138.364,2.008424
2341,36972,130.881,137.972,1.835617
2353,37161.6,130.403,137.577,1.962168
2365,37351.2,129.929,137.179,1.882206
2377,37540.8,129.493,136.777,1.812452
2389,37730.4,129.094,136.374,1.779272
2401,37920,128.684,135.972,1.795292
2413,38109.6,128.202,135.566,1.748225
2425,38299.2,127.677,135.156,1.674496
2437,38488.8,127.152,134.739,1.63291
2449,38678.4,126.651,134.318,1.722718
2461,38868,126.194,133.895,1.736906
2473,39057.6,125.781,133.47,1.590407
2485,39247.2,125.378,133.047,1.68026
2497,39436.8,124.933,132.624,1.521914
2509,39626.4,124.446,132.198,1.272303
2521,39816,123.95,131.768,1.710005
2533,40005.6,123.476,131.337,1.744547
2545,40195.2,123.042,130.905,1.786607
2557,40384.8,122.649,130.473,1.708058
2569,40574.4,122.254,130.044,1.658297
2581,40764,121.802,129.615,1.622515
2593,40953.6,121.302,129.183,1.565752
2605,41143.2,120.799,128.749,1.624728
2617,41332.8,120.322,128.312,1.666962
2629,41522.4,119.888,127.874,1.740098
2641,41712,119.497,127.437,1.56901
2653,41901.6,119.122,127.003,1.427007
2665,42091.2,118.711,126.572,1.361105
2677,42280.8,118.258,126.14,1.3683
2689,42470.4,117.796,125.708,1.452804
2701,42660,117.355,125.275,1.646109
2713,42849.6,116.95,124.843,1.553961
2725,43039.2,116.586,124.413,1.362837
2737,43228.8,116.261,123.988,1.49149
2749,43418.4,115.965,123.569,1.666998
2761,43608,115.685,123.156,1.596529
2773,43797.6,115.394,122.751,1.535603
2785,43987.2,115.084,122.353,1.419435
2797,44176.8,114.78,121.958,1.398361
2809,44366.4,114.475,121.57,1.329732
2821,44556,114.136,121.183,1.313742
2833,44745.6,113.781,120.8,1.135121
2845,44935.2,113.443,120.418,1.339354
2857,45124.8,113.132,120.039,1.151764
2869,45314.4,112.848,119.666,1.153418
2881,45504,112.557,119.297,1.181288
2893,45693.6,112.218,118.93,1.21454
2905,45883.2,111.856,118.565,1.236817
2917,46072.8,111.499,118.2,1.146445
2929,46262.4,111.168,117.836,1.199571
2941,46452,110.871,117.475,1.434425
2953,46641.6,110.601,117.118,1.214555
2965,46831.2,110.345,116.766,0.89841
2977,47020.8,110.102,116.419,1.005148
2989,47210.4,109.838,116.079,1.10937
3001,47400,109.549,115.741,1.048644
3013,47589.6,109.257,115.405,1.034608
3025,47779.2,108.979,115.072,1.049293
3037,47968.8,108.726,114.743,0.943755
3049,48158.4,108.487,114.418,0.851276
3061,48348,108.225,114.098,0.822987
3073,48537.6,107.926,113.779,0.87326
3085,48727.2,107.615,113.462,0.817277
3097,48916.8,107.316,113.146,0.876573
3109,49106.4,107.041,112.83,0.884334
3121,49296,106.794,112.517,0.79896
3133,49485.6,106.56,112.208,0.777163
3145,49675.2,106.318,111.904,0.820277
3157,49864.8,106.079,111.602,0.731685
3169,50054.4,105.858,111.304,0.793654
3181,50244,105.658,111.01,0.866055
3193,50433.6,105.463,110.722,0.836318
3205,50623.2,105.23,110.439,0.686445
3217,50812.8,104.952,110.157,0.64717
3229,51002.4,104.66,109.875,0.67187
3241,51192,104.38,109.592,0.652683
3253,51381.6,104.125,109.31,0.677193
3265,51571.2,103.899,109.03,0.658242
3277,51760.8,103.695,108.753,0.632922
3289,51950.4,103.472,108.48,0.729231
3301,52140,103.209,108.209,0.736711
3313,52329.6,102.928,107.937,0.692424
3325,52519.2,102.656,107.666,0.774888
3337,52708.8,102.408,107.395,0.645487
3349,52898.4,102.188,107.126,0.590238
3361,53088,101.991,106.861,0.624565
3373,53277.6,101.799,106.598,0.580512
3385,53467.2,101.611,106.339,0.601179
3397,53656.8,101.436,106.085,0.646582
3409,53846.4,101.268,105.835,0.640457
3421,54036,101.074,105.589,0.59537
3433,54225.6,100.85,105.344,0.49242
3445,54415.2,100.617,105.101,0.556001
3457,54604.8,100.395,104.858,0.514039
3469,54794.4,100.195,104.618,0.527007
3481,54984,100.02,104.38,0.520207
3493,55173.6,99.8624,104.146,0.483115
3505,55363.2,99.7111,103.917,0.403822
3517,55552.8,99.5732,103.69,0.382024
3529,55742.4,99.4461,103.47,0.396766
3541,55932,99.3143,103.254,0.349942
3553,56121.6,99.1553,103.043,0.353495
3565,56311.2,98.968,102.833,0.313327
3577,56500.8,98.7719,102.623,0.32374
3589,56690.4,98.5845,102.416,0.31703
3601,56880,98.4157,102.21,0.309632
3613,57069.6,98.2711,102.006,0.227399
3625,57259.2,98.1487,101.807,0.212851
3637,57448.8,98.0296,101.611,0.189617
3649,57638.4,97.9035,101.419,0.236149
3661,57828,97.7796,101.231,0.217195
3673,58017.6,97.6652,101.047,0.163813
3685,58207.2,97.564,100.867,0.093222
3697,58396.8,97.4586,100.69,0.086332
3709,58586.4,97.336,100.518,0.081095
3721,58776,97.1992,100.348,0.096647
3733,58965.6,97.0642,100.179,0.039991
3745,59155.2,96.9418,100.013,0.027932
3757,59344.8,96.8345,99.8495,0.04482
3769,59534.4,96.7291,99.6896,0.017885
3781,59724,96.6176,99.531,-0.011151
3793,59913.6,96.5077,99.3762,-0.01421
3805,60103.2,96.4096,99.2241,-0.045735
3817,60292.8,96.3251,99.0746,-0.048168
3829,60482.4,96.2423,98.9293,-0.030567
3841,60672,96.1421,98.7882,-0.071749
3853,60861.6,96.0171,98.648,-0.087837
3865,61051.2,95.8783,98.5073,-0.089988
3877,61240.8,95.7398,98.3668,-0.100676
3889,61430.4,95.6139,98.2271,-0.076538
3901,61620,95.5069,98.089,-0.114259
3913,61809.6,95.4172,97.9522,-0.113367
3925,61999.2,95.3377,97.8189,-0.098754
3937,62188.8,95.2572,97.6888,-0.120492
3949,62378.4,95.1691,97.5603,-0.124064
3961,62568,95.0811,97.435,-0.164796
3973,62757.6,94.9918,97.31098,-0.175996
3985,62947.2,94.8834,97.1885,-0.187907
3997,63136.8,94.7602,97.0664,-0.18086
4009,63326.4,94.6359,96.9436,-0.19764
4021,63516,94.5222,96.8221,-0.188858
4033,63705.6,94.4243,96.7008,-0.149932
4045,63895.2,94.3298,96.5809,-0.177821
4057,64084.8,94.22901,96.4619,-0.177314
4069,64274.4,94.1264,96.3446,-0.201466
4081,64464,94.0315,96.22721,-0.210716
4093,64653.6,93.9499,96.1121,-0.206406
4105,64843.2,93.8822,95.9998,-0.348768
4117,65032.8,93.8044,95.8893,-0.262269
4129,65222.4,93.7005,95.77973,-0.259733
4141,65412,93.5785,95.66947,-0.267327
4153,65601.6,93.4527,95.5581,-0.266194
4165,65791.2,93.3348,95.44744,-0.264358
4177,65980.8,93.2332,95.3366,-0.25691
4189,66170.4,93.1472,95.2265,-0.255059
4201,66360,93.0633,95.1167,-0.258472
4213,66549.6,92.9628,95.0097,-0.27454
4225,66739.2,92.8434,94.9013,-0.264957
4237,66928.8,92.71842,94.7925,-0.266626
4249,67118.4,92.6029,94.6833,-0.269006
4261,67308,92.5044,94.57363,-0.279508
4273,67497.6,92.4208,94.4657,-0.294619
4285,67687.2,92.3486,94.35813,-0.277935
4297,67876.8,92.279,94.2538,-0.291295
4309,68066.4,92.2062,94.1505,-0.293695
4321,68256,92.1346,94.0498,-0.316306
4333,68445.6,92.0588,93.9498,-0.310562
4345,68635.2,91.9816,93.85166,-0.310486
4357,68824.8,91.901,93.7542,-0.309697
4369,69014.4,91.8105,93.6573,-0.327767
4381,69204,91.7197,93.56095,-0.332688
4393,69393.6,91.6277,93.4645,-0.335837
4405,69583.2,91.53446,93.3684,-0.334707
4417,69772.8,91.4404,93.2727,-0.345004
4429,69962.4,91.3422,93.1771,-0.342807
4441,70152,91.24,93.0804,-0.335959
4453,70341.6,91.1318,92.9833,-0.333397
4465,70531.2,91.0182,92.8866,-0.324019
4477,70720.8,90.8958,92.7879,-0.326828
4489,70910.4,90.77178,92.6887,-0.322821
4501,71100,90.6408,92.58573,-0.318818
4513,71289.6,90.5137,92.48403,-0.304371
4525,71479.2,90.3954,92.37905,-0.309352
4537,71668.8,90.2787,92.2746,-0.30569
4549,71858.4,90.1626,92.169,-0.294807
4561,72048,90.044,92.0629,-0.300158
4573,72237.6,89.9301,91.9561,-0.279851
4585,72427.2,89.8085,91.84812,-0.271088
4597,72616.8,89.6809,91.7403,-0.257597
4609,72806.4,89.5501,91.6294,-0.264033
4621,72996,89.4179,91.5194,-0.255958
4633,73185.6,89.2931,91.4078,-0.245689
4645,73375.2,89.18212,91.29624,-0.257229
4657,73564.8,89.0832,91.1843,-0.261874
4669,73754.4,88.9914,91.0729,-0.268716
4681,73944,88.90853,90.9632,-0.256953
4693,74133.6,88.8306,90.8547,-0.261239
4705,74323.2,88.74314,90.74819,-0.275404
4717,74512.8,88.63999,90.6423,-0.290695
4729,74702.4,88.5245,90.5363,-0.289159
4741,74892,88.40824,90.4302,-0.282118
4753,75081.6,88.301,90.323,-0.276166
4765,75271.2,88.2068,90.2166,-0.264319
4777,75460.8,88.1265,90.1103,-0.296607
4789,75650.4,88.05419,90.00701,-0.300588
4801,75840,87.98345,89.904,-0.297939
4813,76029.6,87.912,89.8033,-0.307089
4825,76219.2,87.846,89.7049,-0.333984
4837,76408.8,87.7898,89.6074,-0.337999
4849,76598.4,87.7396,89.514,-0.332386
4861,76788,87.6882,89.4214,-0.347135
4873,76977.6,87.6345,89.3322,-0.372653
4885,77167.2,87.5823,89.2443,-0.388932
4897,77356.8,87.5382,89.1588,-0.401887
4909,77546.4,87.5014,89.0765,-0.414108
4921,77736,87.4657,88.996,-0.424109
4933,77925.6,87.4274,88.9179,-0.428903
4945,78115.2,87.3887,88.8419,-0.4486
4957,78304.8,87.3555,88.7691,-0.454515
4969,78494.4,87.3309,88.6979,-0.474611
4981,78684,87.3054,88.6302,-0.48837
4993,78873.6,87.2626,88.56452,-0.499149
5005,79063.2,87.2024,88.4981,-0.502843
5017,79252.8,87.1362,88.4329,-0.504291
5029,79442.4,87.0736,88.3685,-0.496004
5041,79632,87.021,88.3035,-0.504565
5053,79821.6,86.9804,88.2388,-0.49552
5065,80011.2,86.94805,88.1761,-0.502581
5077,80200.8,86.9086,88.1158,-0.51264
5089,80390.4,86.8556,88.0555,-0.517455
5101,80580,86.7978,87.9962,-0.520016
5113,80769.6,86.7436,87.937,-0.528595
5125,80959.2,86.6988,87.8785,-0.520629
5137,81148.8,86.6657,87.8203,-0.529213
5149,81338.4,86.6412,87.7641,-0.52198
5161,81528,86.6247,87.7096,-0.538845
5173,81717.6,86.61019,87.6579,-0.538371
5185,81907.2,86.5834,87.6068,-0.5477
5197,82096.8,86.5498,87.5578,-0.545706
5209,82286.4,86.5189,87.5098,-0.546725
5221,82476,86.4943,87.4628,-0.533007
5233,82665.6,86.4683,87.4167,-0.551773
5245,82855.2,86.4499,87.3723,-0.551642
5257,83044.8,86.7057,87.33306,-0.583634
5269,83234.4,87.2275,87.3151,-0.649566
5281,83424,87.7289,87.3255,-0.73007
5293,83613.6,88.1355,87.3602,-0.785402
5305,83803.2,88.4726,87.4144,-0.814829
5317,83992.8,88.7812,87.4835,-0.83239
5329,84182.4,89.0892,87.5659,-0.848304
5341,84372,89.4044,87.6616,-0.871993
5353,84561.6,89.7253,87.7692,-0.906074
5365,84751.2,90.0409,87.8895,-0.928302
5377,84940.8,90.3517,88.0201,-0.94099
5389,85130.4,90.6675,88.1603,-0.95768
5401,85320,90.9882,88.3116,-0.967473
5413,85509.6,91.3101,88.47103,-0.985014
5425,85699.2,91.6327,88.6411,-0.996794
5437,85888.8,91.9493,88.819,-1.020385
5449,86078.4,92.2601,89.005,-1.036742
5461,86268,92.5738,89.19657,-1.047416
5473,86457.6,92.8927,89.3954,-1.049452
5485,86647.2,93.2145,89.6011,-1.05659
5497,86836.8,93.5353,89.8137,-1.065844
5509,87026.4,93.8489,90.0316,-1.090107
5521,87216,94.1523,90.2543,-1.096211
5533,87405.6,94.4583,90.4812,-1.09858
5545,87595.2,94.7758,90.7125,-1.11114
5557,87784.8,95.1014,90.9486,-1.11666
5569,87974.4,95.427,91.1897,-1.122104
5581,88164,95.7508,91.43479,-1.12712
5593,88353.6,96.0683,91.6841,-1.121196
5605,88543.2,96.3714,91.9364,-1.128291
5617,88732.8,96.6726,92.1911,-1.141824
5629,88922.4,96.9884,92.4473,-1.148441
5641,89112,97.3133,92.70658,-1.162178
5653,89301.6,97.6389,92.9703,-1.156463
5665,89491.2,97.96311,93.2359,-1.167195
5677,89680.8,98.2832,93.50582,-1.162507
5689,89870.4,98.5938,93.7776,-1.153915
5701,90060,98.8987,94.0504,-1.163446
5713,90249.6,99.2125,94.3246,-1.170794
5725,90439.2,99.5342,94.601,-1.181263
5737,90628.8,99.8565,94.8796,-1.18814
5749,90818.4,100.178,95.16033,-1.184432
5761,91008,100.493,95.4421,-1.184589
5773,91197.6,100.806,95.7254,-1.179143
5785,91387.2,101.121,96.0103,-1.192875
5797,91576.8,101.439,96.2966,-1.197839
5809,91766.4,101.756,96.5846,-1.194793
5821,91956,102.072,96.8743,-1.186217
5833,92145.6,102.388,97.1651,-1.189747
5845,92335.2,102.698,97.4553,-1.20359
5857,92524.8,103.01,97.7479,-1.206019
5869,92714.4,103.329,98.04032,-1.204335
5881,92904,103.65,98.3339,-1.203677
5893,93093.6,103.958,98.628,-1.199958
5905,93283.2,104.262,98.9226,-1.196255
5917,93472.8,104.574,99.21546,-1.190223
5929,93662.4,104.897,99.51087,-1.201435
5941,93852,105.2246,99.8072,-1.197753
5953,94041.6,105.55,100.105,-1.201814
5965,94231.2,105.872,100.404,-1.204505
5977,94420.8,106.191,100.703,-1.199154
5989,94610.4,106.507,101.004,-1.195825
6001,94800,106.82,101.305,-1.203833
6013,94989.6,107.128,101.606,-1.209476
6025,95179.2,107.425,101.907,-1.210797
6037,95368.8,107.731,102.207,-1.202206
6049,95558.4,108.054,102.507,-1.196298
6061,95748,108.383,102.808,-1.188776
6073,95937.6,108.711,103.111,-1.18948
6085,96127.2,109.036,103.414,-1.195409
6097,96316.8,109.355,103.719,-1.204571
6109,96506.4,109.671,104.024,-1.211403
6121,96696,109.985,104.33,-1.209759
6133,96885.6,110.297,104.636,-1.20294
6145,97075.2,110.602,104.941,-1.199717
6157,97264.8,110.907,105.247,-1.197159
6169,97454.4,111.223,105.553,-1.204589
6181,97644,111.549,105.859,-1.209421
6193,97833.6,111.876,106.166,-1.211981
6205,98023.2,112.198,106.473,-1.211338
6217,98212.8,112.501,106.783,-1.214186
6229,98402.4,112.795,107.089,-1.208788
6241,98592,113.107,107.3944,-1.192332
6253,98781.6,113.432,107.701,-1.195881
6265,98971.2,113.759,108.007,-1.198474
6277,99160.8,114.089,108.315,-1.199149
6289,99350.4,114.414,108.624,-1.198876
6301,99540,114.727,108.934,-1.202991
6313,99729.6,115.031,109.245,-1.205209
6325,99919.2,115.341,109.555,-1.194319
6337,100108.8,115.662,109.864,-1.196881
6349,100298.4,115.986,110.175,-1.193825
6361,100488,116.31,110.487,-1.199773
6373,100677.6,116.622,110.799,-1.207236
6385,100867.2,116.926,111.112,-1.199856
6397,101056.8,117.238,111.424,-1.189442
6409,101246.4,117.56,111.736,-1.189522
6421,101436,117.882,112.049,-1.206452
6433,101625.6,118.198,112.364,-1.199453
6445,101815.2,118.515,112.678,-1.189747
6457,102004.8,118.832,112.992,-1.196519
6469,102194.4,119.147,113.307,-1.203871
6481,102384,119.462,113.622,-1.198769
6493,102573.6,119.775,113.937,-1.190972
6505,102763.2,120.085,114.252,-1.187138
6517,102952.8,120.393,114.568,-1.198072
6529,103142.4,120.71,114.881,-1.197863
6541,103332,121.033,115.196,-1.194053
6553,103521.6,121.355,115.51,-1.188181
6565,103711.2,121.669,115.825,-1.172176
6577,103900.8,121.969,116.14,-1.162804
6589,104090.4,122.2732,116.452,-1.178751
6601,104280,122.591,116.763,-1.172108
6613,104469.6,122.919,117.075,-1.161351
6625,104659.2,123.249,117.389,-1.156533
6637,104848.8,123.574,117.702,-1.161466
6649,105038.4,123.889,118.017,-1.157543
6661,105228,124.194,118.332,-1.141623
6673,105417.6,124.504,118.646,-1.157392
6685,105607.2,124.821,118.959,-1.156456
6697,105796.8,125.142,119.273,-1.154065
6709,105986.4,125.466,119.587,-1.155758
6721,106176,125.779,119.902,-1.159476
6733,106365.6,126.083,120.216,-1.156812
6745,106555.2,126.391,120.531,-1.144908
6757,106744.8,126.708,120.844,-1.141435
6769,106934.4,127.033,121.156,-1.142019
6781,107124,127.357,121.47,-1.140007
6793,107313.6,127.676,121.785,-1.148896
6805,107503.2,127.987,122.1,-1.148309
6817,107692.8,128.296,122.413,-1.136312
6829,107882.4,128.612,122.727,-1.134912
6841,108072,128.934,123.04,-1.126124
6853,108261.6,129.254,123.355,-1.14236
6865,108451.2,129.568,123.671,-1.141241
6877,108640.8,129.881,123.986,-1.135885
6889,108830.4,130.198,124.301,-1.132534
6901,109020,130.516,124.616,-1.132018
6913,109209.6,130.833,124.932,-1.134314
6925,109399.2,131.148,125.247,-1.126228
6937,109588.8,131.463,125.563,-1.127413
6949,109778.4,131.778,125.878,-1.132798
6961,109968,132.095,126.194,-1.121692
6973,110157.6,132.412,126.509,-1.126515
6985,110347.2,132.727,126.825,-1.124649
6997,110536.8,133.042,127.141,-1.11641
7009,110726.4,133.358,127.456,-1.12732
7021,110916,133.673,127.773,-1.117175
7033,111105.6,133.987,128.089,-1.121701
7045,111295.2,134.302,128.403,-1.126222
7057,111484.8,134.616,128.719,-1.116153
7069,111674.4,134.93,129.033,-1.112995
7081,111864,135.248,129.349,-1.119152
7093,112053.6,135.564,129.664,-1.115454
7105,112243.2,135.875,129.978,-1.104137
7117,112432.8,136.189,130.293,-1.111926
7129,112622.4,136.508,130.606,-1.109101
7141,112812,136.831,130.921,-1.109537
7153,113001.6,137.156,131.236,-1.104551
7165,113191.2,137.474,131.551,-1.095532
7177,113380.8,137.785,131.867,-1.106516
7189,113570.4,138.094,132.183,-1.100496
7201,113760,138.411,132.497,-1.089123
7213,113949.6,138.726,132.812,-1.094175
7225,114139.2,139.038,133.127,-1.101887
7237,114328.8,139.348,133.442,-1.093529
7249,114518.4,139.663,133.755,-1.087078
7261,114708,139.9849,134.068,-1.08332
7273,114897.6,140.309,134.382,-1.089424
7285,115087.2,140.631,134.697,-1.08514
7297,115276.8,140.946,135.013,-1.082727
7309,115466.4,141.256,135.328,-1.084037
7321,115656,141.569,135.643,-1.082703
7333,115845.6,141.887,135.958,-1.080055
7345,116035.2,142.201,136.272,-1.082166
7357,116224.8,142.515,136.587,-1.071648
7369,116414.4,142.835,136.901,-1.07929
7381,116604,143.151,137.216,-1.078775
7393,116793.6,143.462,137.53,-1.069115
7405,116983.2,143.777,137.844,-1.072812
7417,117172.8,144.096,138.158,-1.073633
7429,117362.4,144.413,138.473,-1.067682
7441,117552,144.727,138.788,-1.072924
7453,117741.6,145.043,139.102,-1.067262
7465,117931.2,145.361,139.416,-1.056699
7477,118120.8,145.676,139.731,-1.068673
7489,118310.4,145.989,140.044,-1.069512
7501,118500,146.305,140.358,-1.059781
7513,118689.6,146.625,140.672,-1.060895
7525,118879.2,146.938,140.986,-1.067404
7537,119068.8,147.249,141.3,-1.067225
7549,119258.4,147.565,141.613,-1.062696
7561,119448,147.887,141.928,-1.056902
7573,119637.6,148.209,142.2423,-1.061853
7585,119827.2,148.522,142.556,-1.069087
7597,120016.8,148.834,142.871,-1.072226
7609,120206.4,149.152,143.186,-1.064179
7621,120396,149.471,143.5,-1.069608
7633,120585.6,149.789,143.815,-1.079323
7645,120775.2,150.106,144.13,-1.079148
7657,120964.8,150.421,144.445,-1.089583
7669,121154.4,150.735,144.761,-1.097718
7681,121344,151.051,145.077,-1.098275
7693,121533.6,151.368,145.392,-1.11668
7705,121723.2,151.682,145.708,-1.124995
7717,121912.8,151.998,146.023,-1.131282
7729,122102.4,152.315,146.34,-1.150307
7741,122292,152.627,146.656,-1.173777
7753,122481.6,152.941,146.97,-1.184465
7765,122671.2,153.259,147.285,-1.190889
7777,122860.8,153.582,147.601,-1.198284
7789,123050.4,153.902,147.919,-1.216083
7801,123240,154.211,148.234,-1.236317
7813,123429.6,154.518,148.551,-1.238918
7825,123619.2,154.831,148.865,-1.221256
7837,123808.8,155.152,149.18,-1.205622
7849,123998.4,155.476,149.496,-1.180666
7861,124188,155.794,149.812,-1.166864
7873,124377.6,156.102,150.127,-1.139345
7885,124567.2,156.408,150.443,-1.101853
7897,124756.8,156.722,150.757,-1.057126
7909,124946.4,157.045,151.072,-1.03602
7921,125136,157.37,151.386,-1.018399
7933,125325.6,157.69,151.701,-1.019119
7945,125515.2,157.996,152.017,-1.006684
7957,125704.8,158.298,152.331,-0.990893
7969,125894.4,158.612,152.644,-0.985597
7981,126084,158.937,152.956,-0.993904
7993,126273.6,159.265,153.27,-0.98644
8005,126463.2,159.59,153.585,-0.974886
8017,126652.8,159.908,153.901,-0.968916
8029,126842.4,160.22,154.216,-0.98491
8041,127032,160.526,154.532,-0.981117
8053,127221.6,160.839,154.846,-0.970126
8065,127411.2,161.158,155.161,-0.958447
8077,127600.8,161.471,155.476,-0.968864
8089,127790.4,161.787,155.791,-0.972554
8101,127980,162.099,156.105,-0.96906
8113,128169.6,162.414,156.419,-0.943133
8125,128359.2,162.732,156.732,-0.950668
8137,128548.8,163.047,157.046,-0.942941
8149,128738.4,163.366,157.36,-0.949984
8161,128928,163.675,157.674,-0.93017
8173,129117.6,163.988,157.987,-0.932002
8185,129307.2,164.303,158.299,-0.923175
8197,129496.8,164.616,158.61,-0.920054
8209,129686.4,164.936,158.921,-0.925215
8221,129876,165.257,159.232,-0.907238
8233,130065.6,165.579,159.543,-0.92089
8245,130255.2,165.89,159.856,-0.916381
8257,130444.8,166.196,160.167,-0.913536
8269,130634.4,166.519,160.477,-0.903897
8281,130824,166.849,160.788,-0.8835
8293,131013.6,167.165,161.101,-0.902483
8305,131203.2,167.447,161.411,-0.919321
8317,131392.8,167.74,161.718,-0.900406
8329,131582.4,168.06,162.022,-0.871523
8341,131772,168.397,162.328,-0.859013
8353,131961.6,168.736,162.635,-0.863749
8365,132151.2,169.068,162.943,-0.869397
8377,132340.8,169.384,163.254,-0.865512
8389,132530.4,169.68,163.564,-0.863495
8401,132720,169.984,163.872,-0.879775
8413,132909.6,170.307,164.179,-0.865507
8425,133099.2,170.638,164.489,-0.857502
8437,133288.8,170.967,164.799,-0.852052
8449,133478.4,171.281,165.11,-0.844544
8461,133668,171.577,165.421,-0.835215
8473,133857.6,171.886,165.731,-0.843147
8485,134047.2,172.211,166.041,-0.843945
8497,134236.8,172.541,166.353,-0.829156
8509,134426.4,172.866,166.665,-0.808224
8521,134616,173.18,166.978,-0.809974
8533,134805.6,173.476,167.291,-0.812178
8545,134995.2,173.78,167.602,-0.802754
8557,135184.8,174.101,167.913,-0.791078
8569,135374.4,174.43,168.224,-0.788532
8581,135564,174.759,168.536,-0.768946
8593,135753.6,175.07,168.85,-0.761662
8605,135943.2,175.367,169.163,-0.76596
8617,136132.8,175.675,169.475,-0.770252
8629,136322.4,176.001,169.787,-0.740163
8641,136512,176.333,170.1,-0.710597
8653,136701.6,176.657,170.412,-0.723291
8665,136891.2,176.97,170.728,-0.713865
8677,137080.8,177.267,171.041,-0.690513
8689,137270.4,177.57,171.354,-0.664075
8701,137460,177.895,171.665,-0.639049
8713,137649.6,178.225,171.9784,-0.670823
8725,137839.2,178.554,172.293,-0.671829
8737,138028.8,178.872,172.609,-0.6471
8749,138218.4,179.172,172.924,-0.651487
8761,138408,179.48,173.238,-0.61345
8773,138597.6,179.804,173.553,-0.58866
8785,138787.2,180.13,173.868,-0.573727
8797,138976.8,180.45,174.184,-0.57729
8809,139166.4,180.756,174.5,-0.555961
8821,139356,181.068,174.815,-0.57641
8833,139545.6,181.389,175.131,-0.590605
8845,139735.2,181.712,175.447,-0.582845
8857,139924.8,182.03,175.765,-0.532853
8869,140114.4,182.332,176.081,-0.530482
8881,140304,182.631,176.397,-0.566076
8893,140493.6,182.947,176.711,-0.58925
8905,140683.2,183.274,177.025,-0.619201
8917,140872.8,183.602,177.341,-0.660079
8929,141062.4,183.929,177.657,-0.703724
8941,141252,184.25,177.975,-0.698767
8953,141441.6,184.564,178.293,-0.715963
8965,141631.2,184.87,178.612,-0.714727
8977,141820.8,185.183,178.93,-0.676094
8989,142010.4,185.5,179.248,-0.658304
9001,142200,185.816,179.566,-0.651468
9013,142389.6,186.133,179.885,-0.664704
9025,142579.2,186.449,180.203,-0.660055
9037,142768.8,186.765,180.522,-0.669123
9049,142958.4,187.072,180.84,-0.65666
9061,143148,187.376,181.157,-0.630556
9073,143337.6,187.695,181.473,-0.611447
9085,143527.2,188.021,181.79,-0.621402
9097,143716.8,188.343,182.108,-0.620951
9109,143906.4,188.648,182.425,-0.626556
9121,144096,188.948,182.741,-0.5907
9133,144285.6,189.261,183.055,-0.587491
9145,144475.2,189.589,183.37,-0.60885
9157,144664.8,189.918,183.686,-0.585181
9169,144854.4,190.244,184.001,-0.590589
9181,145044,190.566,184.319,-0.626478
9193,145233.6,190.882,184.638,-0.620886
9205,145423.2,191.188,184.956,-0.601591
9217,145612.8,191.504,185.274,-0.564354
9229,145802.4,191.812,185.592,-0.553931
9241,145992,192.117,185.908,-0.571947
9253,146181.6,192.435,186.2246,-0.555566
9265,146371.2,192.762,186.541,-0.569923
9277,146560.8,193.085,186.858,-0.58702
9289,146750.4,193.389,187.175,-0.59174
9301,146940,193.694,187.49,-0.558195
9313,147129.6,194.012,187.805,-0.536611
9325,147319.2,194.337,188.121,-0.520372
9337,147508.8,194.663,188.437,-0.538923
9349,147698.4,194.98,188.754,-0.573526
9361,147888,195.295,189.071,-0.569992
9373,148077.6,195.608,189.389,-0.558012
9385,148267.2,195.912,189.705,-0.576034
9397,148456.8,196.226,190.02,-0.538774
9409,148646.4,196.552,190.337,-0.567314
9421,148836,196.872,190.652,-0.592645
9433,149025.6,197.185,190.97,-0.55779
9445,149215.2,197.501,191.286,-0.560816
9457,149404.8,197.821,191.603,-0.589226
9469,149594.4,198.122,191.918,-0.572514
9481,149784,198.4242,192.234,-0.526305
9493,149973.6,198.748,192.548,-0.522872
9505,150163.2,199.077,192.862,-0.521535
9517,150352.8,199.402,193.177,-0.502659
9529,150542.4,199.724,193.494,-0.527631
9541,150732,200.041,193.812,-0.520455
9553,150921.6,200.351,194.129,-0.491848
9565,151111.2,200.655,194.445,-0.494919
9577,151300.8,200.96,194.761,-0.502559
9589,151490.4,201.272,195.075,-0.484439
9601,151680,201.587,195.389,-0.434613
9613,151869.6,201.908,195.702,-0.440222
9625,152059.2,202.238,196.017,-0.47108
9637,152248.8,202.565,196.334,-0.463401
9649,152438.4,202.884,196.65,-0.482399
9661,152628,203.186,196.966,-0.462956
9673,152817.6,203.484,197.281,-0.451804
9685,153007.2,203.794,197.594,-0.461492
9697,153196.8,204.119,197.908,-0.476929
9709,153386.4,204.447,198.221,-0.466622
9721,153576,204.771,198.537,-0.452425
9733,153765.6,205.103,198.854,-0.469676
9745,153955.2,205.427,199.171,-0.463299
9757,154144.8,205.738,199.489,-0.430285
9769,154334.4,206.046,199.807,-0.423137
9781,154524,206.347,200.125,-0.426234
9793,154713.6,206.651,200.442,-0.437302
9805,154903.2,206.974,200.758,-0.445695
9817,155092.8,207.301,201.074,-0.427545
9829,155282.4,207.617,201.389,-0.445314
9841,155472,207.915,201.705,-0.464071
9853,155661.6,208.217,202.019,-0.461223
9865,155851.2,208.529,202.332,-0.44313
9877,156040.8,208.856,202.645,-0.464081
9889,156230.4,209.187,202.959,-0.456979
9901,156420,209.513,203.276,-0.454959
9913,156609.6,209.839,203.593,-0.442404
9925,156799.2,210.153,203.911,-0.434325
9937,156988.8,210.455,204.227,-0.441033
9949,157178.4,210.766,204.542,-0.414579
9961,157368,211.089,204.857,-0.381911
9973,157557.6,211.417,205.174,-0.386831
9985,157747.2,211.738,205.491,-0.435697
9997,157936.8,212.053,205.809,-0.417396
10009,158126.4,212.358,206.126,-0.464342
10021,158316,212.6659,206.443,-0.442029
10033,158505.6,212.989,206.759,-0.43141
10045,158695.2,213.311,207.077,-0.42161
10057,158884.8,213.632,207.395,-0.41905
10069,159074.4,213.94,207.713,-0.403666
10081,159264,214.242,208.03,-0.348458
10093,159453.6,214.556,208.346,-0.349171
10105,159643.2,214.879,208.662,-0.389469
10117,159832.8,215.205,208.98,-0.36038
10129,160022.4,215.525,209.297,-0.384036
10141,160212,215.846,209.617,-0.406255
10153,160401.6,216.146,209.935,-0.406919
10165,160591.2,216.456,210.253,-0.373733
10177,160780.8,216.781,210.57,-0.38278
10189,160970.4,217.105,210.887,-0.401951
10201,161160,217.425,211.205,-0.402818
10213,161349.6,217.737,211.524,-0.414598
10225,161539.2,218.041,211.841,-0.423983
10237,161728.8,218.359,212.159,-0.454158
10249,161918.4,218.68,212.476,-0.450232
10261,162108,219,212.794,-0.464117
10273,162297.6,219.312,213.113,-0.41334
10285,162487.2,219.628,213.431,-0.421111
10297,162676.8,219.943,213.75,-0.417422
10309,162866.4,220.249,214.067,-0.410586
10321,163056,220.567,214.385,-0.403565
10333,163245.6,220.876,214.702,-0.427271
10345,163435.2,221.184,215.017,-0.428121
10357,163624.8,221.503,215.333,-0.444502
10369,163814.4,221.832,215.649,-0.414497
10381,164004,222.151,215.965,-0.415748
10393,164193.6,222.471,216.283,-0.428177
10405,164383.2,222.785,216.6,-0.427653
10417,164572.8,223.097,216.917,-0.438098
10429,164762.4,223.415,217.235,-0.436786
10441,164952,223.734,217.552,-0.42609
10453,165141.6,224.054,217.869,-0.418538
10465,165331.2,224.371,218.187,-0.450828
10477,165520.8,224.676,218.505,-0.42571
10489,165710.4,224.992,218.823,-0.416228
10501,165900,225.316,219.14,-0.423514
10513,166089.6,225.6313,219.458,-0.418526
10525,166279.2,225.9401,219.775,-0.41024
10537,166468.8,226.251,220.093,-0.42121
10549,166658.4,226.572,220.409,-0.405167
10561,166848,226.894,220.726,-0.411468
10573,167037.6,227.214,221.044,-0.420475
10585,167227.2,227.528,221.362,-0.423461
10597,167416.8,227.834,221.679,-0.434578
10609,167606.4,228.149,221.996,-0.453035
10621,167796,228.471,222.312,-0.442459
10633,167985.6,228.794,222.63,-0.415471
10645,168175.2,229.112,222.948,-0.426178
10657,168364.8,229.43,223.267,-0.432624
10669,168554.4,229.746,223.586,-0.431927
10681,168744,230.064,223.906,-0.401172
10693,168933.6,230.382,224.226,-0.369499
10705,169123.2,230.697,224.546,-0.372698
10717,169312.8,231,224.867,-0.361088
10729,169502.4,231.306,225.185,-0.379086
10741,169692,231.627,225.503,-0.350402
10753,169881.6,231.951,225.823,-0.331544
10765,170071.2,232.273,226.143,-0.309837
10777,170260.8,232.591,226.463,-0.346981
10789,170450.4,232.896,226.782,-0.346165
10801,170640,233.206,227.102,-0.369648
10813,170829.6,233.528,227.42,-0.370157
10825,171019.2,233.851,227.74,-0.395122
10837,171208.8,234.172,228.06,-0.374992
10849,171398.4,234.486,228.38,-0.361759
10861,171588,234.792,228.7,-0.361511
10873,171777.6,235.103,229.02,-0.368314
10885,171967.2,235.426,229.339,-0.379107
10897,172156.8,235.748,229.659,-0.38551
10909,172346.4,236.071,229.979,-0.378973
10921,172536,236.384,230.301,-0.362944
10933,172725.6,236.686,230.622,-0.370485
10945,172915.2,236.994,230.94,-0.39206
10957,173104.8,237.316,231.26,-0.372835
10969,173294.4,237.64,231.579,-0.383768
10981,173484,237.962,231.898,-0.367605
10993,173673.6,238.28,232.219,-0.372471
11005,173863.2,238.59,232.54,-0.361632
11017,174052.8,238.906,232.861,-0.340413
11029,174242.4,239.226,233.181,-0.363045
11041,174432,239.547,233.503,-0.343741
11053,174621.6,239.862,233.825,-0.352004
11065,174811.2,240.163,234.146,-0.397773
11077,175000.8,240.47,234.466,-0.396761
11089,175190.4,240.792,234.785,-0.366382
11101,175380,241.116,235.105,-0.355422
11113,175569.6,241.441,235.426,-0.374372
11125,175759.2,241.756,235.747,-0.389353
11137,175948.8,242.057,236.068,-0.363752
11149,176138.4,242.363,236.387,-0.392611
11161,176328,242.683,236.706,-0.369294
11173,176517.6,243.009,237.024,-0.38743
11185,176707.2,243.331,237.343,-0.411164
11197,176896.8,243.654,237.664,-0.394993
11209,177086.4,243.963,237.985,-0.390256
11221,177276,244.28,238.306,-0.394499
11233,177465.6,244.6,238.628,-0.418917
11245,177655.2,244.915,238.95,-0.385977
11257,177844.8,245.209,239.271,-0.386671
11269,178034.4,245.514,239.588,-0.400796
11281,178224,245.837,239.906,-0.406889
11293,178413.6,246.164,240.224,-0.415024
11305,178603.2,246.488,240.543,-0.427804
11317,178792.8,246.814,240.863,-0.415823
11329,178982.4,247.122,241.183,-0.417803
11341,179172,247.425,241.502,-0.450628
11353,179361.6,247.738,241.82,-0.44423
11365,179551.2,248.06,242.138,-0.438769
11377,179740.8,248.384,242.457,-0.418659
11389,179930.4,248.709,242.776,-0.428051
11401,180120,249.018,243.097,-0.434466
11413,180309.6,249.324,243.416,-0.429025
11425,180499.2,249.641,243.735,-0.434325
11437,180688.8,249.963,244.054,-0.439063
11449,180878.4,250.289,244.374,-0.44084
11461,181068,250.611,244.696,-0.448339
11473,181257.6,250.929,245.018,-0.415399
11485,181447.2,251.246,245.342,-0.421982
11497,181636.8,251.549,245.664,-0.431693
11509,181826.4,251.859,245.986,-0.450794
11521,182016,252.178,246.308,-0.442798
11533,182205.6,252.483,246.629,-0.451012
11545,182395.2,252.783,246.949,-0.469337
11557,182584.8,253.098,247.265,-0.472015
11569,182774.4,253.422,247.582,-0.464767
11581,182964,253.748,247.9,-0.465975
11593,183153.6,254.074,248.218,-0.479666
11605,183343.2,254.389,248.538,-0.468756
11617,183532.8,254.697,248.856,-0.48133
11629,183722.4,255.012,249.174,-0.473
11641,183912,255.333,249.492,-0.487575
11653,184101.6,255.656,249.81,-0.498106
11665,184291.2,255.975,250.131,-0.496917
11677,184480.8,256.287,250.45,-0.513101
11689,184670.4,256.605,250.77,-0.491985
11701,184860,256.927,251.091,-0.509068
11713,185049.6,257.252,251.413,-0.517917
11725,185239.2,257.574,251.736,-0.513619
11737,185428.8,257.892,252.061,-0.520266
11749,185618.4,258.201,252.387,-0.533285
11761,185808,258.506,252.713,-0.532082
11773,185997.6,258.82,253.039,-0.522144
11785,186187.2,259.14,253.363,-0.525682
11797,186376.8,259.463,253.69,-0.527034
11809,186566.4,259.78,254.017,-0.494394
11821,186756,260.095,254.345,-0.49667
11833,186945.6,260.409,254.673,-0.504391
11845,187135.2,260.724,255.001,-0.512831
11857,187324.8,261.04,255.329,-0.504938
11869,187514.4,261.353,255.659,-0.52642
11881,187704,261.66,255.986,-0.551686
11893,187893.6,261.975,256.313,-0.547774
11905,188083.2,262.291,256.64,-0.564679
11917,188272.8,262.607,256.966,-0.556243
11929,188462.4,262.917,257.292,-0.549987
11941,188652,263.229,257.617,-0.549341
11953,188841.6,263.546,257.941,-0.550683
11965,189031.2,263.86,258.264,-0.576758
11977,189220.8,264.162,258.585,-0.576646
11989,189410.4,264.474,258.905,-0.554354
12001,189600,264.798,259.223,-0.5694
12013,189789.6,265.123,259.542,-0.588753
12025,189979.2,265.448,259.861,-0.603046
12037,190168.8,265.77,260.181,-0.612466
12049,190358.4,266.088,260.502,-0.613961
12061,190548,266.401,260.825,-0.599092
12073,190737.6,266.697,261.145,-0.580468
12085,190927.2,267.001,261.463,-0.555577
12097,191116.8,267.323,261.7782,-0.581523
12109,191306.4,267.646,262.095,-0.58214
12121,191496,267.974,262.413,-0.595851
12133,191685.6,268.301,262.731,-0.606322
12145,191875.2,268.621,263.051,-0.572521
12157,192064.8,268.934,263.372,-0.586575
12169,192254.4,269.239,263.692,-0.610104
12181,192444,269.552,264.011,-0.616257
12193,192633.6,269.872,264.331,-0.590747
12205,192823.2,270.192,264.652,-0.584746
12217,193012.8,270.507,264.973,-0.596085
12229,193202.4,270.825,265.294,-0.607949
12241,193392,271.142,265.615,-0.609628
12253,193581.6,271.458,265.936,-0.610235
12265,193771.2,271.773,266.258,-0.604064
12277,193960.8,272.082,266.58,-0.634088
12289,194150.4,272.395,266.901,-0.647159
12301,194340,272.709,267.22,-0.638136
12313,194529.6,273.026,267.54,-0.649415
12325,194719.2,273.343,267.859,-0.643781
12337,194908.8,273.658,268.1791,-0.631039
12349,195098.4,273.973,268.4985,-0.62951
12361,195288,274.28,268.817,-0.657837
12373,195477.6,274.594,269.134,-0.672819
12385,195667.2,274.915,269.45,-0.651927
12397,195856.8,275.218,269.767,-0.647203
12409,196046.4,275.524,270.079,-0.66466
12421,196236,275.842,270.39,-0.670226
12433,196425.6,276.168,270.701,-0.674191
12445,196615.2,276.497,271.013,-0.661856
12457,196804.8,276.824,271.326,-0.649884
12469,196994.4,277.144,271.642,-0.666066
12481,197184,277.462,271.958,-0.667549
12493,197373.6,277.779,272.275,-0.680526
12505,197563.2,278.096,272.593,-0.698089
12517,197752.8,278.411,272.911,-0.698673
12529,197942.4,278.726,273.229,-0.712328
12541,198132,279.038,273.549,-0.697548
12553,198321.6,279.352,273.868,-0.68384
12565,198511.2,279.656,274.186,-0.66891
12577,198700.8,279.965,274.502,-0.666867
12589,198890.4,280.285,274.817,-0.669587
12601,199080,280.608,275.133,-0.671777
12613,199269.6,280.921,275.449,-0.668682
12625,199459.2,281.227,275.763,-0.685836
12637,199648.8,281.541,276.077,-0.684854
12649,199838.4,281.863,276.39,-0.671912
12661,200028,282.189,276.704,-0.671289
12673,200217.6,282.503,277.018,-0.662758
12685,200407.2,282.806,277.332,-0.683574
12697,200596.8,283.121,277.644,-0.693664
12709,200786.4,283.444,277.955,-0.681629
12721,200976,283.77,278.269,-0.671006
12733,201165.6,284.082,278.582,-0.674074
12745,201355.2,284.389,278.895,-0.68731
12757,201544.8,284.706,279.206,-0.688095
12769,201734.4,285.03,279.518,-0.681696
12781,201924,285.354,279.831,-0.666195
12793,202113.6,285.659,280.145,-0.678016
12805,202303.2,285.957,280.457,-0.70313
12817,202492.8,286.272,280.766,-0.707411
12829,202682.4,286.598,281.076,-0.684237
12841,202872,286.931,281.386,-0.671218
12853,203061.6,287.262,281.699,-0.656986
12865,203251.2,287.582,282.014,-0.656211
12877,203440.8,287.888,282.33,-0.662422
12889,203630.4,288.197,282.647,-0.66601
12901,203820,288.516,282.962,-0.66541
12913,204009.6,288.835,283.278,-0.660975
12925,204199.2,289.15,283.596,-0.668397
12937,204388.8,289.447,283.91,-0.688538
12949,204578.4,289.755,284.224,-0.692291
12961,204768,290.078,284.537,-0.678629
12973,204957.6,290.403,284.85,-0.670548
12985,205147.2,290.728,285.1644,-0.662472
12997,205336.8,291.042,285.479,-0.663796
13009,205526.4,291.359,285.795,-0.652426
13021,205716,291.679,286.111,-0.652015
13033,205905.6,291.98,286.427,-0.671762
13045,206095.2,292.285,286.741,-0.683159
13057,206284.8,292.607,287.054,-0.66972
13069,206474.4,292.932,287.368,-0.658721
13081,206664,293.223,287.683,-0.645127
13093,206853.6,293.228,287.989,-0.577778
13105,207043.2,293.208,288.275,-0.534244
13117,207232.8,293.187,288.54,-0.532872
13129,207422.4,293.178,288.785,-0.531688
13141,207612,293.164,289.013,-0.536925
13153,207801.6,293.15,289.223,-0.540438
13165,207991.2,293.152,289.415,-0.527855
13177,208180.8,293.159,289.594,-0.512167
13189,208370.4,293.162,289.761,-0.507919
13201,208560,293.158,289.916,-0.503506
13213,208749.6,293.162,290.059,-0.486295
13225,208939.2,293.16,290.193,-0.489511
13237,209128.8,293.149,290.316,-0.501037
13249,209318.4,293.151,290.43,-0.497689
13261,209508,293.155,290.535,-0.479989
13273,209697.6,293.159,290.634,-0.470253
13285,209887.2,293.139,290.724,-0.499433
13297,210076.8,293.121,290.805,-0.495066
13309,210266.4,293.128,290.877,-0.476526
13321,210456,293.142,290.946,-0.463178
13333,210645.6,293.156,291.009,-0.460554
13345,210835.2,293.165,291.069,-0.460351
13357,211024.8,293.166,291.127,-0.450815
13369,211214.4,293.152,291.18,-0.458741
13381,211404,293.145,291.228,-0.458199
13393,211593.6,293.15,291.272,-0.457658
13405,211783.2,293.154,291.313,-0.453836
13417,211972.8,293.159,291.352,-0.440337
13429,212162.4,293.161,291.389,-0.436518
13441,212352,293.156,291.424,-0.437884
13453,212541.6,293.156,291.456,-0.442362
13465,212731.2,293.144,291.485,-0.448223
13477,212920.8,293.121,291.509,-0.452531
13489,213110.4,293.123,291.529,-0.436798
13501,213300,293.134,291.547,-0.429187
13513,213489.6,293.146,291.564,-0.433499
13525,213679.2,293.159,291.583,-0.439365
13537,213868.8,293.165,291.6,-0.436938
13549,214058.4,293.157,291.617,-0.446259
13561,214248,293.142,291.632,-0.436923
13573,214437.6,293.143,291.644,-0.434326
13585,214627.2,293.15,291.656,-0.433629
13597,214816.8,293.156,291.667,-0.43587
13609,215006.4,293.146,291.678,-0.43742
13621,215196,293.137,291.687,-0.437588
13633,215385.6,293.145,291.694,-0.429293
13645,215575.2,293.15,291.701,-0.432399
13657,215764.8,293.158,291.709,-0.433605
13669,215954.4,293.142,291.715,-0.435329
13681,216144,293.129,291.72,-0.424444
13693,216333.6,293.133,291.722,-0.421852
13705,216523.2,293.144,291.725,-0.422023
13717,216712.8,293.159,291.729,-0.420812
13729,216902.4,293.169,291.734,-0.431175
13741,217092,293.171,291.741,-0.43739
13753,217281.6,293.158,291.747,-0.436697
13765,217471.2,293.154,291.752,-0.433758
13777,217660.8,293.15,291.757,-0.43151
13789,217850.4,293.148,291.761,-0.434272
13801,218040,293.147,291.764,-0.433407
13813,218229.6,293.142,291.767,-0.437378
13825,218419.2,293.132,291.768,-0.427531
13837,218608.8,293.138,291.768,-0.423559
13849,218798.4,293.146,291.768,-0.420795
13861,218988,293.136,291.768,-0.428049
13873,219177.6,293.131,291.767,-0.431505
13885,219367.2,293.139,291.764,-0.426842
13897,219556.8,293.149,291.763,-0.423906
13909,219746.4,293.161,291.763,-0.426152
13921,219936,293.148,291.764,-0.437379
13933,220125.6,293.131,291.763,-0.440835
13945,220315.2,293.13,291.759,-0.438591
13957,220504.8,293.139,291.756,-0.430301
13969,220694.4,293.15,291.754,-0.422701
13981,220884,293.16,291.751,-0.415274
13993,221073.6,293.155,291.752,-0.424948
14005,221263.2,293.141,291.751,-0.435831
14017,221452.8,293.141,291.748,-0.430995
14029,221642.4,293.152,291.747,-0.422359
14041,221832,293.158,291.746,-0.422187
14053,222021.6,293.162,291.747,-0.422013
14065,222211.2,293.149,291.747,-0.428578
14077,222400.8,293.141,291.746,-0.433415
14089,222590.4,293.147,291.744,-0.428406
14101,222780,293.152,291.744,-0.425988
14113,222969.6,293.157,291.744,-0.427024
14125,223159.2,293.147,291.744,-0.437389
14137,223348.8,293.137,291.743,-0.433762
14149,223538.4,293.14,291.74,-0.42789
14161,223728,293.147,291.738,-0.426854
14173,223917.6,293.156,291.738,-0.428409
14185,224107.2,293.15,291.737,-0.426163
14197,224296.8,293.147,291.737,-0.431173
14209,224486.4,293.149,291.735,-0.430828
14221,224676,293.154,291.736,-0.425992
14233,224865.6,293.164,291.737,-0.422018
14245,225055.2,293.153,291.738,-0.426681
14257,225244.8,293.14,291.737,-0.425818
14269,225434.4,293.14,291.736,-0.431001
14281,225624,293.1467,291.735,-0.430656
14293,225813.6,293.152,291.735,-0.428065
14305,226003.2,293.166,291.736,-0.422018
14317,226192.8,293.156,291.738,-0.4329
14329,226382.4,293.144,291.738,-0.432382
14341,226572,293.146,291.738,-0.430136
14353,226761.6,293.151,291.738,-0.427199
14365,226951.2,293.159,291.739,-0.423226
14377,227140.8,293.167,291.742,-0.413551
14389,227330.4,293.151,291.743,-0.425643
14401,227520,293.14,291.743,-0.437562
14413,227709.6,293.146,291.743,-0.420288
14425,227899.2,293.154,291.743,-0.414069
14437,228088.8,293.164,291.744,-0.413032
14449,228278.4,293.172,291.748,-0.417349
14461,228468,293.177,291.752,-0.413719
14473,228657.6,293.173,291.758,-0.4246
14485,228847.2,293.161,291.763,-0.433925
14497,229036.8,293.156,291.767,-0.437724
14509,229226.4,293.154,291.77,-0.435822
14521,229416,293.145,291.773,-0.438757
14533,229605.6,293.139,291.774,-0.43012
14545,229795.2,293.13,291.774,-0.430983
14557,229984.8,293.132,291.773,-0.431502
14569,230174.4,293.144,291.771,-0.427357
14581,230364,293.148,291.772,-0.430985
14593,230553.6,293.132,291.77,-0.433749
14605,230743.2,293.12,291.767,-0.439797
14617,230932.8,293.123,291.761,-0.437899
14629,231122.4,293.138,291.757,-0.434792
14641,231312,293.148,291.753,-0.432721
14653,231501.6,293.156,291.751,-0.422012
14665,231691.2,293.153,291.75,-0.42633
14677,231880.8,293.154,291.749,-0.432204
14689,232070.4,293.157,291.749,-0.430304
14701,232260,293.159,291.748,-0.427195
14713,232449.6,293.152,291.749,-0.43445
14725,232639.2,293.153,291.749,-0.434277
14737,232828.8,293.156,291.749,-0.424604
14749,233018.4,293.16,291.75,-0.419248
14761,233208,293.151,291.752,-0.421493
14773,233397.6,293.143,291.751,-0.432549
14785,233587.2,293.145,291.751,-0.432894
14797,233776.8,293.154,291.752,-0.429266
14809,233966.4,293.16,291.752,-0.429093
14821,234156,293.145,291.753,-0.439285
14833,234345.6,293.134,291.751,-0.439458
14845,234535.2,293.14,291.749,-0.439459
14857,234724.8,293.148,291.748,-0.435314
14869,234914.4,293.158,291.748,-0.425986
14881,235104,293.147,291.749,-0.430995
14893,235293.6,293.136,291.747,-0.417349
14905,235483.2,293.137,291.745,-0.425987
14917,235672.8,293.145,291.742,-0.429443
14929,235862.4,293.153,291.74,-0.436872
14941,236052,293.156,291.741,-0.436354
14953,236241.6,293.158,291.741,-0.431517
14965,236431.2,293.155,291.741,-0.437045
14975,236589.2,293.156,291.742,-0.438081