File: i_data/water_tests/archive/H2O-NH3_0.19g.csv
HeatFlow :,,,,
 Initial Mass : 190 mg,,,,
 Molar Mass : N/A,,,,
,,,,
Baseline :,,,,
 Initial Mass : 190 mg,,,,
 Molar Mass : N/A,,,,
,,,,
Index,Time(s),Furnace Temperature(K),Sample Temperature(K),HeatFlow(mW)
1,0,293.196,292.184,60.3502
13,189.6,288.979,292.082,60.3567
25,379.2,285.919,291.738,60.37882
37,568.8,283.286,291.208,47.191
49,758.4,280.9,290.5306,21.1751
61,948,278.701,289.732,9.626058
73,1137.6,276.663,288.836,4.610996
85,1327.2,274.737,287.862,2.537566
97,1516.8,272.898,286.822,1.77081
109,1706.4,271.137,285.727,1.575409
121,1896,269.455,284.591,1.612796
133,2085.6,267.821,283.417,1.765605
145,2275.2,266.23,282.214,1.957961
157,2464.8,264.679,280.988,2.153206
169,2654.4,263.178,279.743,2.297912
181,2844,261.694,278.483,2.517729
193,3033.6,260.214,277.209,2.667253
205,3223.2,258.759,275.925,2.792595
217,3412.8,257.334,274.633,2.950079
229,3602.4,255.945,273.337,3.162099
241,3792,254.557,272.037,3.282426
253,3981.6,253.175,270.734,3.482241
265,4171.2,251.814,269.43,3.581832
277,4360.8,250.483,268.127,3.697793
289,4550.4,249.166,266.826,3.870127
301,4740,247.85,265.528,3.785425
313,4929.6,246.55,264.232,3.936541
325,5119.2,245.272,262.943,62.6425
337,5308.8,244.01,261.658,36.5887
349,5498.4,242.765,260.377,19.8754
361,5688,241.54,259.103,10.9233
373,5877.6,240.334,257.837,6.973108
385,6067.2,239.145,256.579,5.281377
397,6256.8,237.958,255.329,4.716505
409,6446.4,236.772,254.086,4.236656
421,6636,235.59,252.852,4.664762
433,6825.6,234.396,251.623,3.502778
445,7015.2,233.201,250.4,3.491634
457,7204.8,232.024,249.183,2.91356
469,7394.4,230.883,247.973,3.102911
481,7584,229.776,246.773,2.749461
493,7773.6,228.685,245.583,2.74458
505,7963.2,227.609,244.402,2.398332
517,8152.8,226.528,243.233,2.794692
529,8342.4,225.415,242.071,3.092984
541,8532,224.288,240.913,3.71998
553,8721.6,223.171,239.762,3.586524
565,8911.2,222.078,238.617,3.084185
577,9100.8,220.986,237.477,3.557711
589,9290.4,219.878,236.344,4.056031
601,9480,218.773,235.214,3.490329
613,9669.6,217.691,234.09,3.039875
625,9859.2,216.638,232.973,2.831763
637,10048.8,215.585,231.863,2.825159
649,10238.4,214.529,230.759,2.788931
661,10428,213.489,229.662,2.479715
673,10617.6,212.475,228.572,2.54924
685,10807.2,211.48,227.491,2.618088
697,10996.8,210.477,226.417,2.958071
709,11186.4,209.477,225.351,3.151206
721,11376,208.496,224.292,2.694852
733,11565.6,207.545,223.242,2.57532
745,11755.2,206.595,222.201,2.490093
757,11944.8,205.638,221.167,2.323807
769,12134.4,204.689,220.142,2.540976
781,12324,203.765,219.124,2.958688
793,12513.6,202.861,218.115,2.575379
805,12703.2,201.94,217.116,2.198071
817,12892.8,201.001,216.123,2.704869
829,13082.4,200.067,215.136,2.087838
841,13272,199.147,214.155,1.834756
853,13461.6,198.202,213.178,1.542761
865,13651.2,197.198,212.202,1.287652
877,13840.8,196.171,211.226,1.471645
889,14030.4,195.155,210.249,1.299536
901,14220,194.165,209.273,1.427157
913,14409.6,193.158,208.298,1.291798
925,14599.2,192.125,207.322,0.753485
937,14788.8,191.1,206.345,0.955003
949,14978.4,190.105,205.368,1.839008
961,15168,189.151,204.394,2.355093
973,15357.6,188.188,203.424,1.745215
985,15547.2,187.165,202.453,1.048179
997,15736.8,186.097,201.479,1.076856
1009,15926.4,185.029,200.503,1.514108
1021,16116,183.985,199.524,2.251387
1033,16305.6,182.986,198.546,1.834464
1045,16495.2,182.024,197.57,3.142451
1057,16684.8,181.038,196.596,2.75301
1069,16874.4,180.007,195.622,2.10017
1081,17064,178.953,194.646,1.782547
1093,17253.6,177.906,193.668,1.887522
1105,17443.2,176.893,192.69,1.363006
1117,17632.8,175.916,191.712,2.384145
1129,17822.4,174.966,190.739,2.393358
1141,18012,173.985,189.768,2.966092
1153,18201.6,172.96,188.798,2.619976
1165,18391.2,171.921,187.825,2.771865
1177,18580.8,170.906,186.852,2.836401
1189,18770.4,169.929,185.88,2.99022
1201,18960,168.988,184.911,3.099
1213,19149.6,168.058,183.946,3.319229
1225,19339.2,167.077,182.985,2.875163
1237,19528.8,166.041,182.021,2.64312
1249,19718.4,165.002,181.057,2.24112
1261,19908,163.993,180.091,2.267946
1273,20097.6,163.022,179.125,3.241896
1285,20287.2,162.096,178.162,3.817329
1297,20476.8,161.192,177.206,4.036849
1309,20666.4,160.316,176.253,2.940771
1321,20856,159.474,175.308,2.956925
1333,21045.6,158.658,174.371,3.508884
1345,21235.2,157.84,173.445,3.032108
1357,21424.8,156.996,172.524,4.042434
1369,21614.4,156.14,171.609,3.495191
1381,21804,155.305,170.7,3.175484
1393,21993.6,154.497,169.798,2.976211
1405,22183.2,153.695,168.902,3.033284
1417,22372.8,152.846,168.013,3.411208
1429,22562.4,151.959,167.126,2.95018
1441,22752,151.067,166.241,3.299527
1453,22941.6,150.2,165.359,3.363228
1465,23131.2,149.371,164.48,2.978016
1477,23320.8,148.582,163.606,3.539569
1489,23510.4,147.825,162.739,3.737891
1501,23700,147.065,161.88,3.758925
1513,23889.6,146.297,161.028,4.053089
1525,24079.2,145.538,160.182,3.83936
1537,24268.8,144.803,159.342,3.661752
1549,24458.4,144.081,158.512,4.160763
1561,24648,143.321,157.687,4.102531
1573,24837.6,142.509,156.865,4.12389
1585,25027.2,141.658,156.045,3.659816
1597,25216.8,140.811,155.226,3.824685
1609,25406.4,139.999,154.407,3.710367
1621,25596,139.226,153.59,3.78286
1633,25785.6,138.483,152.779,3.594525
1645,25975.2,137.725,151.972,3.913201
1657,26164.8,136.949,151.167,3.92791
1669,26354.4,136.173,150.367,4.404912
1681,26544,135.414,149.569,4.455099
1693,26733.6,134.662,148.775,4.385141
1705,26923.2,133.886,147.984,3.962488
1717,27112.8,133.062,147.194,4.272871
1729,27302.4,132.213,146.404,4.12144
1741,27492,131.345,145.612,4.283068
1753,27681.6,130.484,144.817,4.739676
1765,27871.2,129.662,144.022,4.502514
1777,28060.8,128.891,143.229,4.533769
1789,28250.4,128.154,142.436,4.057345
1801,28440,127.439,141.648,4.165719
1813,28629.6,126.698,140.865,4.024656
1825,28819.2,125.937,140.086,4.18206
1837,29008.8,125.177,139.308,4.531478
1849,29198.4,124.437,138.532,4.6598
1861,29388,123.738,137.762,4.517825
1873,29577.6,123.074,136.997,4.546205
1885,29767.2,122.429,136.237,5.215853
1897,29956.8,121.767,135.482,4.801815
1909,30146.4,121.076,134.734,4.611937
1921,30336,120.378,133.991,4.696137
1933,30525.6,119.679,133.25,4.573347
1945,30715.2,119.014,132.5138,4.817268
1957,30904.8,118.392,131.783,4.512466
1969,31094.4,117.796,131.057,4.618995
1981,31284,117.206,130.339,4.294671
1993,31473.6,116.597,129.629,4.489517
2005,31663.2,115.978,128.924,4.4412
2017,31852.8,115.36,128.225,4.60298
2029,32042.4,114.776,127.531,4.565478
2041,32232,114.214,126.844,4.499722
2053,32421.6,113.678,126.163,4.20491
2065,32611.2,113.17,125.492,4.245908
2077,32800.8,112.676,124.829,4.365069
2089,32990.4,112.163,124.176,4.375894
2101,33180,111.651,123.529,4.300847
2113,33369.6,111.134,122.89,4.55614
2125,33559.2,110.627,122.259,4.48827
2137,33748.8,110.143,121.635,4.185778
2149,33938.4,109.681,121.019,4.115182
2161,34128,109.25,120.411,4.067097
2173,34317.6,108.797,119.811,4.068575
2185,34507.2,108.318,119.22,3.892823
2197,34696.8,107.835,118.635,3.888895
2209,34886.4,107.346,118.055,3.986977
2221,35076,106.861,117.48,3.790779
2233,35265.6,106.388,116.909,3.795316
2245,35455.2,105.941,116.346,3.829295
2257,35644.8,105.517,115.789,3.881404
2269,35834.4,105.114,115.239,3.858488
2281,36024,104.692,114.696,3.648275
2293,36213.6,104.254,114.158,3.805392
2305,36403.2,103.814,113.627,3.625365
2317,36592.8,103.371,113.101,3.692534
2329,36782.4,102.934,112.578,3.600696
2341,36972,102.513,112.061,3.793029
2353,37161.6,102.118,111.548,3.747341
2365,37351.2,101.747,111.042,3.428871
2377,37540.8,101.384,110.544,3.591311
2389,37730.4,101.019,110.053,3.575432
2401,37920,100.655,109.567,3.368524
2413,38109.6,100.302,109.089,3.382372
2425,38299.2,99.9561,108.617,3.313221
2437,38488.8,99.6262,108.15,3.285652
2449,38678.4,99.3121,107.693,3.114066
2461,38868,99.0105,107.243,2.950183
2473,39057.6,98.7152,106.801,2.976774
2485,39247.2,98.4066,106.366,2.866559
2497,39436.8,98.0943,105.937,2.770267
2509,39626.4,97.7799,105.514,2.831203
2521,39816,97.4668,105.098,2.867383
2533,40005.6,97.1619,104.687,2.540561
2545,40195.2,96.8724,104.281,2.462965
2557,40384.8,96.6016,103.882,2.636119
2569,40574.4,96.3421,103.49,2.481253
2581,40764,96.09017,103.104,2.459542
2593,40953.6,95.8363,102.726,2.392294
2605,41143.2,95.5763,102.355,2.236728
2617,41332.8,95.3109,101.988,2.252575
2629,41522.4,95.04856,101.628,2.179313
2641,41712,94.7958,101.273,2.074577
2653,41901.6,94.5507,100.922,2.07676
2665,42091.2,94.3199,100.579,2.076339
2677,42280.8,94.1005,100.241,1.968269
2689,42470.4,93.8933,99.909,1.815757
2701,42660,93.6816,99.5831,1.721903
2713,42849.6,93.4497,99.2643,1.655607
2725,43039.2,93.2099,98.9494,1.643496
2737,43228.8,92.972,98.6388,1.646804
2749,43418.4,92.7368,98.3317,1.579808
2761,43608,92.5098,98.0287,1.62018
2773,43797.6,92.2962,97.7302,1.670132
2785,43987.2,92.0976,97.4363,1.535877
2797,44176.8,91.9105,97.1469,1.471601
2809,44366.4,91.7229,96.863,1.383157
2821,44556,91.5394,96.5842,1.372994
2833,44745.6,91.3643,96.3117,1.401046
2845,44935.2,91.1979,96.044,1.325364
2857,45124.8,91.0256,95.7821,1.29973
2869,45314.4,90.8462,95.5237,1.264153
2881,45504,90.658,95.2709,1.173949
2893,45693.6,90.4662,95.0209,1.115191
2905,45883.2,90.2736,94.7737,1.086027
2917,46072.8,90.0853,94.5294,1.105736
2929,46262.4,89.9014,94.2889,1.145299
2941,46452,89.72486,94.0508,1.114294
2953,46641.6,89.5586,93.81571,1.026303
2965,46831.2,89.4042,93.5849,0.94419
2977,47020.8,89.2609,93.3585,0.921909
2989,47210.4,89.1208,93.1365,0.906461
3001,47400,88.976,92.9201,0.865847
3013,47589.6,88.8261,92.7064,0.85765
3025,47779.2,88.67475,92.4962,0.895225
3037,47968.8,88.5258,92.2898,0.847471
3049,48158.4,88.3839,92.0867,0.842986
3061,48348,88.2497,91.8866,0.822653
3073,48537.6,88.1153,91.6896,0.711855
3085,48727.2,87.9789,91.4965,0.719053
3097,48916.8,87.842,91.307,0.752242
3109,49106.4,87.709,91.1196,0.787723
3121,49296,87.5773,90.9351,0.799055
3133,49485.6,87.4508,90.7544,0.737817
3145,49675.2,87.3311,90.5755,0.66092
3157,49864.8,87.2188,90.4012,0.581958
3169,50054.4,87.1135,90.2307,0.575639
3181,50244,87.0108,90.0625,0.582628
3193,50433.6,86.91062,89.8988,0.56133
3205,50623.2,86.8146,89.7394,0.536841
3217,50812.8,86.7247,89.58219,0.57442
3229,51002.4,86.637,89.43006,0.535945
3241,51192,86.5524,89.2812,0.49864
3253,51381.6,86.4645,89.136,0.473915
3265,51571.2,86.3685,88.9936,0.472161
3277,51760.8,86.2659,88.85372,0.446126
3289,51950.4,86.16149,88.7156,0.46024
3301,52140,86.0596,88.5797,0.444896
3313,52329.6,85.9626,88.4459,0.44328
3325,52519.2,85.8702,88.3146,0.418515
3337,52708.8,85.7852,88.1847,0.383866
3349,52898.4,85.7073,88.0584,0.401899
3361,53088,85.6349,87.9338,0.410295
3373,53277.6,85.5627,87.8128,0.430166
3385,53467.2,85.4836,87.6937,0.373835
3397,53656.8,85.4016,87.578,0.357882
3409,53846.4,85.32,87.4634,0.348876
3421,54036,85.2417,87.3504,0.359409
3433,54225.6,85.1684,87.2407,0.347832
3445,54415.2,85.1003,87.1322,0.332169
3457,54604.8,85.03591,87.0267,0.323317
3469,54794.4,84.973,86.9229,0.349916
3481,54984,84.91178,86.8222,0.383847
3493,55173.6,84.8533,86.7232,0.401399
3505,55363.2,84.797,86.6267,0.356142
3517,55552.8,84.7378,86.5323,0.336885
3529,55742.4,84.6711,86.44007,0.364786
3541,55932,84.6024,86.3495,0.371735
3553,56121.6,84.5281,86.2597,0.371899
3565,56311.2,84.453,86.1704,0.373758
3577,56500.8,84.3804,86.0825,0.379204
3589,56690.4,84.3115,85.9956,0.3662
3601,56880,84.2469,85.9099,0.354639
3613,57069.6,84.1891,85.825,0.345578
3625,57259.2,84.136,85.7418,0.340659
3637,57448.8,84.0884,85.6606,0.328492
3649,57638.4,84.0444,85.581,0.327262
3661,57828,84.0025,85.5037,0.318236
3673,58017.6,83.9633,85.42858,0.304047
3685,58207.2,83.9253,85.35549,0.291502
3697,58396.8,83.8852,85.2844,0.279279
3709,58586.4,83.8405,85.2151,0.273709
3721,58776,83.7907,85.1467,0.286811
3733,58965.6,83.7359,85.0801,0.276856
3745,59155.2,83.6744,85.0134,0.272607
3757,59344.8,83.6171,84.9469,0.268688
3769,59534.4,83.5659,84.8815,0.279255
3781,59724,83.5206,84.8167,0.280041
3793,59913.6,83.47637,84.7535,0.267304
3805,60103.2,83.4295,84.6908,0.265576
3817,60292.8,83.3792,84.6292,0.264776
3829,60482.4,83.3285,84.5682,0.265699
3841,60672,83.2779,84.508,0.264803
3853,60861.6,83.2312,84.4478,0.260282
3865,61051.2,83.1902,84.3897,0.258271
3877,61240.8,83.1525,84.3313,0.258756
3889,61430.4,83.12,84.2752,0.269997
3901,61620,83.0833,84.2197,0.260546
3913,61809.6,83.0429,84.166,0.255444
3925,61999.2,83.0002,84.11254,0.254233
3937,62188.8,82.9585,84.0598,0.261392
3949,62378.4,82.9195,84.0083,0.252348
3961,62568,82.88494,83.9566,0.248766
3973,62757.6,82.85343,83.9062,0.245489
3985,62947.2,82.82482,83.8575,0.243565
3997,63136.8,82.7943,83.8088,0.252388
4009,63326.4,82.7601,83.7615,0.240464
4021,63516,82.7206,83.7158,0.237885
4033,63705.6,82.68,83.6696,0.2363
4045,63895.2,82.6398,83.6243,0.239337
4057,64084.8,82.6007,83.5785,0.237094
4069,64274.4,82.5669,83.5339,0.232695
4081,64464,82.5369,83.4895,0.232543
4093,64653.6,82.5113,83.4465,0.231837
4105,64843.2,82.488,83.4046,0.242488
4117,65032.8,82.4625,83.3635,0.229258
4129,65222.4,82.4353,83.323,0.225138
4141,65412,82.4092,83.2839,0.220577
4153,65601.6,82.3873,83.245,0.228168
4165,65791.2,82.3681,83.2076,0.229695
4177,65980.8,82.3504,83.17095,0.217592
4189,66170.4,82.3281,83.1354,0.215002
4201,66360,82.3039,83.1009,0.21184
4213,66549.6,82.2764,83.06687,0.222793
4225,66739.2,82.2492,83.0325,0.21255
4237,66928.8,82.2239,82.9995,0.210027
4249,67118.4,82.2018,82.96662,0.205536
4261,67308,82.18389,82.9349,0.204115
4273,67497.6,82.169,82.9032,0.204475
4285,67687.2,82.1545,82.87287,0.211438
4297,67876.8,82.1371,82.84339,0.202282
4309,68066.4,82.119,82.8142,0.198512
4321,68256,82.101,82.7864,0.195227
4333,68445.6,82.0845,82.7589,0.201991
4345,68635.2,82.0672,82.7316,0.196176
4357,68824.8,82.0469,82.7058,0.194802
4369,69014.4,82.0251,82.6792,0.192661
4381,69204,82.0021,82.65322,0.202289
4393,69393.6,81.9814,82.6276,0.194464
4405,69583.2,81.9632,82.6029,0.189641
4417,69772.8,81.9466,82.5781,0.190434
4429,69962.4,81.93,82.553,0.187742
4441,70152,81.9096,82.5293,0.200122
4453,70341.6,81.8879,82.5055,0.190134
4465,70531.2,81.8664,82.4815,0.187888
4477,70720.8,81.8475,82.4586,0.185215
4489,70910.4,81.833,82.4346,0.191263
4501,71100,81.8215,82.4117,0.194696
4513,71289.6,81.8145,82.3905,0.195033
4525,71479.2,81.8058,82.3693,0.181437
4537,71668.8,81.794,82.349,0.180162
4549,71858.4,81.7824,82.3289,0.176069
4561,72048,81.772,82.3095,0.182659
4573,72237.6,81.7651,82.2907,0.186897
4585,72427.2,81.7598,82.2724,0.175659
4597,72616.8,81.75199,82.2556,0.172859
4609,72806.4,81.7391,82.2386,0.170696
4621,72996,81.7223,82.222,0.18278
4633,73185.6,81.7008,82.2045,0.173009
4645,73375.2,81.68006,82.1874,0.171364
4657,73564.8,81.6634,82.1703,0.168095
4669,73754.4,81.6504,82.153,0.176767
4681,73944,81.6426,82.13671,0.174775
4693,74133.6,81.6386,82.1206,0.1798
4705,74323.2,81.635,82.1044,0.169375
4717,74512.8,81.63,82.0894,0.166925
4729,74702.4,81.6257,82.0754,0.163512
4741,74892,81.6229,82.0618,0.162364
4753,75081.6,81.6229,82.0485,0.174437
4765,75271.2,81.6223,82.0365,0.181099
4777,75460.8,81.6173,82.0248,0.177549
4789,75650.4,81.6077,82.014,0.17293
4801,75840,81.5954,82.0023,0.170818
4813,76029.6,81.5812,81.9914,0.17624
4825,76219.2,81.5683,81.9795,0.172742
4837,76408.8,81.5575,81.968,0.171203
4849,76598.4,81.55123,81.9565,0.166848
4861,76788,81.5505,81.94567,0.167242
4873,76977.6,81.552,81.9352,0.166633
4885,77167.2,81.5521,81.9253,0.178744
4897,77356.8,81.5485,81.9157,0.167043
4909,77546.4,81.5427,81.9067,0.164483
4921,77736,81.5385,81.8977,0.159439
4933,77925.6,81.537,81.8894,0.162084
4945,78115.2,81.5404,81.8813,0.16322
4957,78304.8,81.5408,81.8738,0.161391
4969,78494.4,81.5345,81.8664,0.153163
4981,78684,81.5245,81.8598,0.151238
4993,78873.6,81.5122,81.8522,0.150997
5005,79063.2,81.5004,81.84487,0.162297
5017,79252.8,81.4909,81.8368,0.152278
5029,79442.4,81.485,81.8289,0.151209
5041,79632,81.4833,81.8215,0.15221
5053,79821.6,81.4884,81.8142,0.150405
5065,80011.2,81.6701,81.81,0.13058
5077,80200.8,82.1417,81.82279,0.090836
5089,80390.4,82.6421,81.8611,0.025604
5101,80580,83.0595,81.924,-0.031486
5113,80769.6,83.4069,82.0063,-0.080278
5125,80959.2,83.7213,82.103,-0.125538
5137,81148.8,84.03,82.2129,-0.146848
5149,81338.4,84.3411,82.3343,-0.190874
5161,81528,84.6552,82.4668,-0.222827
5173,81717.6,84.9735,82.6104,-0.251518
5185,81907.2,85.294,82.7645,-0.268436
5197,82096.8,85.615,82.9284,-0.302246
5209,82286.4,85.934,83.09989,-0.32683
5221,82476,86.2525,83.2803,-0.351105
5233,82665.6,86.5693,83.4693,-0.369557
5245,82855.2,86.8839,83.665,-0.391286
5257,83044.8,87.19834,83.8677,-0.394583
5269,83234.4,87.516,84.0765,-0.42211
5281,83424,87.83248,84.29119,-0.441006
5293,83613.6,88.1506,84.5115,-0.459763
5305,83803.2,88.4673,84.7377,-0.47408
5317,83992.8,88.7855,84.96958,-0.483624
5329,84182.4,89.1005,85.2048,-0.484899
5341,84372,89.4137,85.4441,-0.506341
5353,84561.6,89.728,85.6873,-0.519644
5365,84751.2,90.0439,85.9348,-0.535519
5377,84940.8,90.3621,86.1855,-0.533028
5389,85130.4,90.6836,86.4396,-0.551922
5401,85320,91.003,86.6971,-0.559228
5413,85509.6,91.3202,86.9568,-0.571687
5425,85699.2,91.6358,87.219,-0.576026
5437,85888.8,91.9485,87.4856,-0.585028
5449,86078.4,92.2589,87.753,-0.586043
5461,86268,92.5759,88.0234,-0.601036
5473,86457.6,92.8946,88.2951,-0.610549
5485,86647.2,93.2148,88.56832,-0.617948
5497,86836.8,93.533,88.8445,-0.619951
5509,87026.4,93.8455,89.1221,-0.626123
5521,87216,94.1566,89.4007,-0.623821
5533,87405.6,94.4722,89.6812,-0.637191
5545,87595.2,94.7893,89.96311,-0.641994
5557,87784.8,95.1057,90.2453,-0.649196
5569,87974.4,95.4243,90.5302,-0.655465
5581,88164,95.7451,90.8166,-0.652568
5593,88353.6,96.0625,91.104,-0.65464
5605,88543.2,96.3799,91.3923,-0.662236
5617,88732.8,96.6885,91.6809,-0.671518
5629,88922.4,97.0013,91.9712,-0.677464
5641,89112,97.3177,92.26116,-0.683899
5653,89301.6,97.6355,92.5523,-0.678297
5665,89491.2,97.9582,92.8445,-0.681937
5677,89680.8,98.2797,93.1375,-0.687748
5689,89870.4,98.5962,93.4319,-0.693011
5701,90060,98.9099,93.7264,-0.697441
5713,90249.6,99.2246,94.02146,-0.701066
5725,90439.2,99.5413,94.3169,-0.701524
5737,90628.8,99.85433,94.61344,-0.701457
5749,90818.4,100.159,94.9096,-0.708152
5761,91008,100.465,95.2058,-0.697561
5773,91197.6,100.783,95.5018,-0.711504
5785,91387.2,101.103,95.7991,-0.715631
5797,91576.8,101.424,96.0976,-0.719962
5809,91766.4,101.743,96.3971,-0.72289
5821,91956,102.067,96.6976,-0.714581
5833,92145.6,102.391,96.9977,-0.720848
5845,92335.2,102.711,97.29856,-0.727919
5857,92524.8,103.023,97.5994,-0.727889
5869,92714.4,103.323,97.9008,-0.73187
5881,92904,103.632,98.2013,-0.736543
5893,93093.6,103.948,98.5023,-0.730012
5905,93283.2,104.2759,98.8035,-0.731178
5917,93472.8,104.599,99.1061,-0.735316
5929,93662.4,104.92,99.4086,-0.738974
5941,93852,105.238,99.7121,-0.739933
5953,94041.6,105.55,100.015,-0.744103
5965,94231.2,105.861,100.319,-0.743416
5977,94420.8,106.174,100.622,-0.74835
5989,94610.4,106.49,100.926,-0.746861
6001,94800,106.811,101.229,-0.742574
6013,94989.6,107.129,101.532,-0.744259
6025,95179.2,107.445,101.836,-0.740666
6037,95368.8,107.756,102.14,-0.751445
6049,95558.4,108.063,102.444,-0.756518
6061,95748,108.378,102.748,-0.756733
6073,95937.6,108.698,103.053,-0.75746
6085,96127.2,109.019,103.358,-0.757153
6097,96316.8,109.343,103.662,-0.751197
6109,96506.4,109.661,103.969,-0.749415
6121,96696,109.973,104.274,-0.753522
6133,96885.6,110.283,104.579,-0.763206
6145,97075.2,110.593,104.884,-0.766289
6157,97264.8,110.909,105.189,-0.765085
6169,97454.4,111.23,105.495,-0.767574
6181,97644,111.55,105.802,-0.769239
6193,97833.6,111.868,106.108,-0.768764
6205,98023.2,112.187,106.415,-0.770506
6217,98212.8,112.5,106.722,-0.772214
6229,98402.4,112.801,107.028,-0.765726
6241,98592,113.117,107.333,-0.76565
6253,98781.6,113.439,107.64,-0.771248
6265,98971.2,113.76,107.946,-0.772188
6277,99160.8,114.082,108.253,-0.772097
6289,99350.4,114.401,108.562,-0.774319
6301,99540,114.72,108.869,-0.774124
6313,99729.6,115.03,109.178,-0.777692
6325,99919.2,115.338,109.485,-0.778193
6337,100108.8,115.652,109.793,-0.780334
6349,100298.4,115.972,110.101,-0.780611
6361,100488,116.294,110.408,-0.775427
6373,100677.6,116.613,110.717,-0.7752
6385,100867.2,116.923,111.025,-0.772841
6397,101056.8,117.225,111.333,-0.783248
6409,101246.4,117.534,111.641,-0.782007
6421,101436,117.855,111.948,-0.781768
6433,101625.6,118.18,112.256,-0.780479
6445,101815.2,118.502,112.564,-0.781034
6457,102004.8,118.826,112.874,-0.775555
6469,102194.4,119.146,113.183,-0.779578
6481,102384,119.453,113.492,-0.780059
6493,102573.6,119.757,113.801,-0.77615
6505,102763.2,120.067,114.11,-0.780236
6517,102952.8,120.386,114.418,-0.783706
6529,103142.4,120.71,114.727,-0.781098
6541,103332,121.034,115.036,-0.780894
6553,103521.6,121.354,115.346,-0.781987
6565,103711.2,121.674,115.656,-0.780345
6577,103900.8,121.981,115.967,-0.784298
6589,104090.4,122.286,116.277,-0.783569
6601,104280,122.599,116.586,-0.786364
6613,104469.6,122.921,116.895,-0.786533
6625,104659.2,123.247,117.205,-0.779592
6637,104848.8,123.568,117.516,-0.782139
6649,105038.4,123.881,117.828,-0.783911
6661,105228,124.185,118.138,-0.782504
6673,105417.6,124.496,118.448,-0.780273
6685,105607.2,124.816,118.757,-0.782563
6697,105796.8,125.14,119.067,-0.781242
6709,105986.4,125.463,119.378,-0.785153
6721,106176,125.78,119.689,-0.784801
6733,106365.6,126.083,120,-0.787445
6745,106555.2,126.383,120.31,-0.788875
6757,106744.8,126.698,120.62,-0.788969
6769,106934.4,127.025,120.93,-0.786937
6781,107124,127.351,121.24,-0.785768
6793,107313.6,127.674,121.551,-0.784669
6805,107503.2,127.989,121.863,-0.784943
6817,107692.8,128.301,122.174,-0.78702
6829,107882.4,128.617,122.486,-0.787332
6841,108072,128.936,122.797,-0.789344
6853,108261.6,129.254,123.11,-0.78981
6865,108451.2,129.565,123.422,-0.792107
6877,108640.8,129.868,123.734,-0.79112
6889,108830.4,130.174,124.045,-0.788834
6901,109020,130.495,124.355,-0.783639
6913,109209.6,130.823,124.666,-0.780545
6925,109399.2,131.149,124.977,-0.779357
6937,109588.8,131.473,125.288,-0.775773
6949,109778.4,131.788,125.602,-0.774986
6961,109968,132.089,125.913,-0.777196
6973,110157.6,132.395,126.224,-0.783197
6985,110347.2,132.714,126.536,-0.782074
6997,110536.8,133.04,126.847,-0.780728
7009,110726.4,133.363,127.16,-0.781765
7021,110916,133.682,127.473,-0.780652
7033,111105.6,133.994,127.786,-0.781176
7045,111295.2,134.309,128.099,-0.780092
7057,111484.8,134.627,128.412,-0.780464
7069,111674.4,134.936,128.725,-0.782367
7081,111864,135.237,129.037,-0.785031
7093,112053.6,135.539,129.348,-0.784677
7105,112243.2,135.854,129.659,-0.782177
7117,112432.8,136.18,129.97,-0.781484
7129,112622.4,136.509,130.281,-0.779293
7141,112812,136.833,130.593,-0.778196
7153,113001.6,137.155,130.907,-0.776077
7165,113191.2,137.461,131.22,-0.776165
7177,113380.8,137.762,131.532,-0.77956
7189,113570.4,138.072,131.843,-0.779357
7201,113760,138.398,132.155,-0.776801
7213,113949.6,138.724,132.467,-0.771279
7225,114139.2,139.05,132.781,-0.768492
7237,114328.8,139.37,133.094,-0.770108
7249,114518.4,139.682,133.409,-0.77033
7261,114708,139.979,133.721,-0.767749
7273,114897.6,140.286,134.034,-0.769837
7285,115087.2,140.605,134.345,-0.76931
7297,115276.8,140.932,134.658,-0.764589
7309,115466.4,141.259,134.97,-0.761545
7321,115656,141.581,135.284,-0.759845
7333,115845.6,141.897,135.599,-0.76031
7345,116035.2,142.197,135.914,-0.761155
7357,116224.8,142.497,136.227,-0.763517
7369,116414.4,142.811,136.539,-0.762591
7381,116604,143.138,136.851,-0.756309
7393,116793.6,143.464,137.165,-0.75445
7405,116983.2,143.786,137.478,-0.752889
7417,117172.8,144.108,137.793,-0.746845
7429,117362.4,144.411,138.107,-0.750643
7441,117552,144.711,138.421,-0.751357
7453,117741.6,145.023,138.735,-0.748113
7465,117931.2,145.347,139.048,-0.747382
7477,118120.8,145.674,139.361,-0.74347
7489,118310.4,146.001,139.675,-0.738111
7501,118500,146.321,139.991,-0.737192
7513,118689.6,146.628,140.306,-0.732258
7525,118879.2,146.93,140.619,-0.732624
7537,119068.8,147.241,140.932,-0.739386
7549,119258.4,147.565,141.247,-0.737766
7561,119448,147.892,141.56,-0.729656
7573,119637.6,148.2153,141.875,-0.72596
7585,119827.2,148.533,142.191,-0.722278
7597,120016.8,148.843,142.506,-0.718702
7609,120206.4,149.154,142.821,-0.719953
7621,120396,149.473,143.136,-0.716931
7633,120585.6,149.794,143.451,-0.717408
7645,120775.2,150.112,143.767,-0.717476
7657,120964.8,150.416,144.082,-0.714966
7669,121154.4,150.718,144.397,-0.713244
7681,121344,151.031,144.711,-0.707991
7693,121533.6,151.354,145.025,-0.710085
7705,121723.2,151.68,145.34,-0.700623
7717,121912.8,152.004,145.656,-0.692504
7729,122102.4,152.321,145.972,-0.683717
7741,122292,152.632,146.288,-0.684544
7753,122481.6,152.941,146.603,-0.682042
7765,122671.2,153.246,146.917,-0.676275
7777,122860.8,153.558,147.231,-0.676166
7789,123050.4,153.884,147.546,-0.669964
7801,123240,154.211,147.861,-0.665611
7813,123429.6,154.536,148.177,-0.655302
7825,123619.2,154.85,148.493,-0.644505
7837,123808.8,155.161,148.808,-0.648751
7849,123998.4,155.476,149.124,-0.649999
7861,124188,155.795,149.439,-0.64431
7873,124377.6,156.117,149.755,-0.638796
7885,124567.2,156.419,150.071,-0.635166
7897,124756.8,156.716,150.386,-0.628426
7909,124946.4,157.024,150.699,-0.620242
7921,125136,157.345,151.014,-0.614445
7933,125325.6,157.675,151.328,-0.610387
7945,125515.2,158.002,151.644,-0.600464
7957,125704.8,158.323,151.961,-0.594363
7969,125894.4,158.628,152.277,-0.587799
7981,126084,158.927,152.593,-0.579285
7993,126273.6,159.245,152.906,-0.563647
8005,126463.2,159.572,153.221,-0.563799
8017,126652.8,159.899,153.536,-0.557014
8029,126842.4,160.225,153.852,-0.559076
8041,127032,160.544,154.169,-0.568614
8053,127221.6,160.858,154.486,-0.546976
8065,127411.2,161.155,154.802,-0.535046
8077,127600.8,161.461,155.117,-0.535532
8089,127790.4,161.782,155.433,-0.545179
8101,127980,162.111,155.748,-0.537077
8113,128169.6,162.433,156.065,-0.513742
8125,128359.2,162.749,156.382,-0.496811
8137,128548.8,163.072,156.698,-0.480946
8149,128738.4,163.375,157.015,-0.466341
8161,128928,163.676,157.332,-0.479673
8173,129117.6,163.991,157.647,-0.477857
8185,129307.2,164.316,157.963,-0.457169
8197,129496.8,164.64,158.279,-0.433213
8209,129686.4,164.96,158.596,-0.431908
8221,129876,165.279,158.913,-0.429829
8233,130065.6,165.593,159.23,-0.418734
8245,130255.2,165.91,159.546,-0.406242
8257,130444.8,166.226,159.863,-0.400952
8269,130634.4,166.547,160.181,-0.400714
8281,130824,166.854,160.498,-0.386499
8293,131013.6,167.153,160.815,-0.391167
8305,131203.2,167.463,161.129,-0.378568
8317,131392.8,167.784,161.444,-0.394796
8329,131582.4,168.11,161.76,-0.395151
8341,131772,168.435,162.076,-0.373512
8353,131961.6,168.76,162.393,-0.344275
8365,132151.2,169.077,162.71,-0.336642
8377,132340.8,169.384,163.026,-0.325979
8389,132530.4,169.693,163.343,-0.314022
8401,132720,170.014,163.659,-0.337496
8413,132909.6,170.337,163.976,-0.332328
8425,133099.2,170.658,164.294,-0.296526
8437,133288.8,170.969,164.61,-0.309271
8449,133478.4,171.271,164.928,-0.300242
8461,133668,171.58,165.243,-0.306839
8473,133857.6,171.899,165.558,-0.297174
8485,134047.2,172.223,165.874,-0.270656
8497,134236.8,172.546,166.191,-0.268459
8509,134426.4,172.866,166.509,-0.242196
8521,134616,173.181,166.826,-0.282992
8533,134805.6,173.482,167.143,-0.278049
8545,134995.2,173.787,167.459,-0.284026
8557,135184.8,174.106,167.775,-0.275032
8569,135374.4,174.433,168.09,-0.235111
8581,135564,174.757,168.408,-0.239983
8593,135753.6,175.076,168.724,-0.25669
8605,135943.2,175.389,169.042,-0.239503
8617,136132.8,175.703,169.359,-0.247049
8629,136322.4,176.022,169.676,-0.265241
8641,136512,176.342,169.994,-0.245901
8653,136701.6,176.654,170.312,-0.235945
8665,136891.2,176.954,170.628,-0.228667
8677,137080.8,177.26,170.945,-0.222967
8689,137270.4,177.574,171.259,-0.192771
8701,137460,177.899,171.575,-0.181066
8713,137649.6,178.226,171.892,-0.167988
8725,137839.2,178.549,172.208,-0.142132
8737,138028.8,178.867,172.527,-0.146261
8749,138218.4,179.168,172.844,-0.144338
8761,138408,179.475,173.16,-0.157895
8773,138597.6,179.791,173.476,-0.16644
8785,138787.2,180.118,173.792,-0.161992
8797,138976.8,180.44,174.109,-0.151672
8809,139166.4,180.765,174.426,-0.130922
8821,139356,181.074,174.744,-0.131799
8833,139545.6,181.378,175.06,-0.141214
8845,139735.2,181.6864,175.377,-0.09289
8857,139924.8,182.01,175.693,-0.066508
8869,140114.4,182.335,176.01,-0.048376
8881,140304,182.66,176.327,-0.029801
8893,140493.6,182.982,176.644,-0.069655
8905,140683.2,183.289,176.963,-0.051817
8917,140872.8,183.59,177.28,-0.017336
8929,141062.4,183.904,177.596,-0.000315
8941,141252,184.226,177.911,-0.028229
8953,141441.6,184.551,178.228,-0.067446
8965,141631.2,184.872,178.546,-0.076979
8977,141820.8,185.185,178.864,-0.056445
8989,142010.4,185.487,179.181,0.005376
9001,142200,185.798,179.497,0.032723
9013,142389.6,186.122,179.813,0.032934
9025,142579.2,186.448,180.13,0.006208
9037,142768.8,186.77,180.447,-0.056797
9049,142958.4,187.085,180.764,-0.042767
9061,143148,187.39,181.082,0.00524
9073,143337.6,187.696,181.399,0.017003
9085,143527.2,188.018,181.715,-0.000065
9097,143716.8,188.343,182.032,0.02312
9109,143906.4,188.667,182.349,0.020768
9121,144096,188.979,182.667,0.024727
9133,144285.6,189.282,182.985,0.031416
9145,144475.2,189.59,183.3,0.045505
9157,144664.8,189.913,183.616,-0.006429
9169,144854.4,190.237,183.933,0.014458
9181,145044,190.558,184.249,-0.00595
9193,145233.6,190.871,184.567,0.043634
9205,145423.2,191.169,184.884,0.016299
9217,145612.8,191.478,185.2,0.041723
9229,145802.4,191.799,185.516,0.052754
9241,145992,192.127,185.832,0.048055
9253,146181.6,192.451,186.149,0.087131
9265,146371.2,192.771,186.467,0.02899
9277,146560.8,193.078,186.784,0.046423
9289,146750.4,193.384,187.101,0.048468
9301,146940,193.697,187.417,0.020652
9313,147129.6,194.021,187.734,0.107856
9325,147319.2,194.345,188.05,0.119757
9337,147508.8,194.667,188.369,0.122123
9349,147698.4,194.984,188.686,0.125621
9361,147888,195.288,189.004,0.162043
9373,148077.6,195.602,189.32,0.12468
9385,148267.2,195.925,189.636,0.063893
9397,148456.8,196.249,189.953,0.035054
9409,148646.4,196.562,190.271,0.071261
9421,148836,196.865,190.587,0.128825
9433,149025.6,197.17,190.903,0.09426
9445,149215.2,197.482,191.22,0.098412
9457,149404.8,197.804,191.535,0.082309
9469,149594.4,198.129,191.852,0.056019
9481,149784,198.451,192.169,0.02291
9493,149973.6,198.773,192.487,0.06786
9505,150163.2,199.079,192.804,0.123128
9517,150352.8,199.386,193.12,0.110206
9529,150542.4,199.702,193.437,0.132505
9541,150732,200.027,193.753,0.10042
9553,150921.6,200.355,194.07,0.05254
9565,151111.2,200.677,194.388,0.076064
9577,151300.8,200.989,194.707,0.108309
9589,151490.4,201.292,195.024,0.188073
9601,151680,201.6,195.34,0.128522
9613,151869.6,201.922,195.656,0.171207
9625,152059.2,202.246,195.973,0.120136
9637,152248.8,202.568,196.29,0.079264
9649,152438.4,202.885,196.608,0.113621
9661,152628,203.202,196.926,0.094413
9673,152817.6,203.509,197.243,0.085419
9685,153007.2,203.814,197.562,0.117146
9697,153196.8,204.13,197.878,0.105849
9709,153386.4,204.452,198.194,0.122755
9721,153576,204.775,198.512,0.172946
9733,153765.6,205.084,198.829,0.089054
9745,153955.2,205.39,199.146,0.072865
9757,154144.8,205.707,199.461,0.097517
9769,154334.4,206.033,199.778,0.08331
9781,154524,206.357,200.095,0.108195
9793,154713.6,206.68,200.413,0.147306
9805,154903.2,206.999,200.731,0.143728
9817,155092.8,207.31,201.049,0.122939
9829,155282.4,207.616,201.366,0.168778
9841,155472,207.93,201.684,0.167766
9853,155661.6,208.25,202.001,0.145146
9865,155851.2,208.566,202.318,0.107645
9877,156040.8,208.88,202.635,0.052343
9889,156230.4,209.196,202.952,0.046998
9901,156420,209.518,203.269,0.143874
9913,156609.6,209.83,203.588,0.160846
9925,156799.2,210.14,203.905,0.17162
9937,156988.8,210.457,204.222,0.170393
9949,157178.4,210.776,204.539,0.21246
9961,157368,211.096,204.858,0.217547
9973,157557.6,211.397,205.175,0.145497
9985,157747.2,211.706,205.49,0.095292
9997,157936.8,212.029,205.807,0.093485
10009,158126.4,212.355,206.123,0.089333
10021,158316,212.676,206.44,0.100279
10033,158505.6,212.997,206.758,0.08517
10045,158695.2,213.302,207.076,0.067324
10057,158884.8,213.613,207.393,0.050872
10069,159074.4,213.934,207.709,0.03259
10081,159264,214.259,208.026,0.065947
10093,159453.6,214.578,208.343,0.087523
10105,159643.2,214.885,208.661,0.120826
10117,159832.8,215.188,208.978,0.093179
10129,160022.4,215.5,209.293,0.084865
10141,160212,215.819,209.609,0.035361
10153,160401.6,216.144,209.925,0.031652
10165,160591.2,216.468,210.242,0.09618
10177,160780.8,216.787,210.559,0.100035
10189,160970.4,217.103,210.878,0.040958
10201,161160,217.41,211.196,0.042302
10213,161349.6,217.719,211.512,0.098767
10225,161539.2,218.038,211.829,0.122849
10237,161728.8,218.361,212.145,0.09635
10249,161918.4,218.683,212.463,0.057532
10261,162108,219,212.781,0.037286
10273,162297.6,219.309,213.099,0.010787
10285,162487.2,219.617,213.416,0.03483
10297,162676.8,219.933,213.733,0.029204
10309,162866.4,220.259,214.049,0.040508
10321,163056,220.58,214.368,0.003521
10333,163245.6,220.903,214.686,0.061494
10345,163435.2,221.202,215.003,0.08282
10357,163624.8,221.506,215.32,0.081819
10369,163814.4,221.827,215.636,0.055314
10381,164004,222.151,215.951,0.064151
10393,164193.6,222.476,216.269,0.030651
10405,164383.2,222.799,216.587,0.035012
10417,164572.8,223.113,216.906,0.053434
10429,164762.4,223.415,217.224,0.080738
10441,164952,223.723,217.54,0.087378
10453,165141.6,224.041,217.856,0.066274
10465,165331.2,224.367,218.172,0.086465
10477,165520.8,224.685,218.491,0.099121
10489,165710.4,225.007,218.808,0.073825
10501,165900,225.311,219.126,0.072478
10513,166089.6,225.618,219.443,0.043684
10525,166279.2,225.934,219.759,0.034684
10537,166468.8,226.259,220.076,0.061444
10549,166658.4,226.58,220.393,0.060046
10561,166848,226.903,220.711,0.054515
10573,167037.6,227.212,221.029,0.007771
10585,167227.2,227.518,221.347,0.050107
10597,167416.8,227.833,221.664,0.027753
10609,167606.4,228.155,221.981,0.023688
10621,167796,228.477,222.297,0.028093
10633,167985.6,228.8,222.616,0.036015
10645,168175.2,229.108,222.935,0.089937
10657,168364.8,229.411,223.253,0.193401
10669,168554.4,229.727,223.569,0.209692
10681,168744,230.05,223.886,0.199375
10693,168933.6,230.376,224.204,0.093679
10705,169123.2,230.695,224.522,0.041319
10717,169312.8,231.006,224.84,0.004955
10729,169502.4,231.318,225.159,-0.003279
10741,169692,231.635,225.475,-0.030012
10753,169881.6,231.955,225.793,-0.074749
10765,170071.2,232.268,226.113,-0.022971
10777,170260.8,232.579,226.43,0.018388
10789,170450.4,232.894,226.748,-0.01424
10801,170640,233.212,227.066,-0.070676
10813,170829.6,233.531,227.384,-0.077071
10825,171019.2,233.848,227.701,-0.102101
10837,171208.8,234.157,228.02,-0.09163
10849,171398.4,234.4667,228.337,-0.033578
10861,171588,234.778,228.654,-0.048778
10873,171777.6,235.095,228.97,-0.011148
10885,171967.2,235.423,229.287,-0.048465
10897,172156.8,235.742,229.604,-0.076959
10909,172346.4,236.061,229.922,-0.099189
10921,172536,236.375,230.242,-0.071331
10933,172725.6,236.685,230.559,-0.10947
10945,172915.2,236.998,230.876,-0.123416
10957,173104.8,237.318,231.194,-0.128063
10969,173294.4,237.639,231.512,-0.091182
10981,173484,237.96,231.83,-0.070659
10993,173673.6,238.27,232.149,-0.094027
11005,173863.2,238.581,232.467,-0.119345
11017,174052.8,238.895,232.785,-0.107874
11029,174242.4,239.213,233.103,-0.098572
11041,174432,239.535,233.42,-0.068867
11053,174621.6,239.856,233.739,-0.077363
11065,174811.2,240.17,234.057,-0.085898
11077,175000.8,240.481,234.376,-0.087645
11089,175190.4,240.796,234.694,-0.069812
11101,175380,241.115,235.012,-0.047674
11113,175569.6,241.433,235.33,-0.010131
11125,175759.2,241.755,235.65,-0.049781
11137,175948.8,242.071,235.97,-0.08354
11149,176138.4,242.386,236.29,-0.11927
11161,176328,242.696,236.61,-0.105188
11173,176517.6,243.01,236.928,-0.080913
11185,176707.2,243.32,237.247,-0.095644
11197,176896.8,243.631,237.566,-0.11331
11209,177086.4,243.95,237.882,-0.114867
11221,177276,244.271,238.201,-0.145914
11233,177465.6,244.587,238.52,-0.144864
11245,177655.2,244.895,238.837,-0.172025
11257,177844.8,245.2062,239.155,-0.163943
11269,178034.4,245.525,239.471,-0.172816
11281,178224,245.846,239.788,-0.153148
11293,178413.6,246.167,240.105,-0.149645
11305,178603.2,246.485,240.422,-0.148556
11317,178792.8,246.807,240.74,-0.165679
11329,178982.4,247.119,241.059,-0.170669
11341,179172,247.43,241.376,-0.172797
11353,179361.6,247.744,241.694,-0.169994
11365,179551.2,248.063,242.012,-0.183229
11377,179740.8,248.385,242.331,-0.182507
11389,179930.4,248.703,242.649,-0.163182
11401,180120,249.0178,242.969,-0.165365
11413,180309.6,249.326,243.288,-0.171113
11425,180499.2,249.641,243.605,-0.189135
11437,180688.8,249.958,243.923,-0.18361
11449,180878.4,250.28,244.242,-0.162192
11461,181068,250.601,244.56,-0.150013
11473,181257.6,250.916,244.88,-0.151976
11485,181447.2,251.221,245.199,-0.17286
11497,181636.8,251.532,245.517,-0.190228
11509,181826.4,251.851,245.834,-0.192694
11521,182016,252.17,246.152,-0.183409
11533,182205.6,252.491,246.469,-0.183574
11545,182395.2,252.811,246.789,-0.157778
11557,182584.8,253.119,247.107,-0.166689
11569,182774.4,253.426,247.426,-0.183654
11581,182964,253.742,247.742,-0.180489
11593,183153.6,254.063,248.059,-0.176441
11605,183343.2,254.387,248.377,-0.180398
11617,183532.8,254.708,248.696,-0.184778
11629,183722.4,255.021,249.015,-0.178364
11641,183912,255.33,249.333,-0.181001
11653,184101.6,255.644,249.651,-0.175707
11665,184291.2,255.964,249.968,-0.162049
11677,184480.8,256.283,250.287,-0.153595
11689,184670.4,256.601,250.604,-0.147333
11701,184860,256.912,250.923,-0.160304
11713,185049.6,257.225,251.242,-0.14783
11725,185239.2,257.542,251.558,-0.148462
11737,185428.8,257.86,251.877,-0.128183
11749,185618.4,258.183,252.195,-0.12369
11761,185808,258.494,252.514,-0.117282
11773,185997.6,258.802,252.833,-0.120843
11785,186187.2,259.119,253.15,-0.115598
11797,186376.8,259.44,253.467,-0.113214
11809,186566.4,259.761,253.785,-0.11647
11821,186756,260.076,254.103,-0.118716
11833,186945.6,260.385,254.422,-0.118945
11845,187135.2,260.699,254.74,-0.124057
11857,187324.8,261.018,255.056,-0.114484
11869,187514.4,261.335,255.374,-0.104674
11881,187704,261.657,255.692,-0.096922
11893,187893.6,261.97,256.01,-0.096945
11905,188083.2,262.28,256.328,-0.102496
11917,188272.8,262.596,256.645,-0.11793
11929,188462.4,262.916,256.963,-0.115633
11941,188652,263.237,257.281,-0.12588
11953,188841.6,263.551,257.6,-0.116491
11965,189031.2,263.864,257.919,-0.125361
11977,189220.8,264.1796,258.236,-0.126892
11989,189410.4,264.5,258.555,-0.121193
12001,189600,264.822,258.875,-0.125003
12013,189789.6,265.136,259.193,-0.139457
12025,189979.2,265.442,259.512,-0.137244
12037,190168.8,265.754,259.829,-0.134895
12049,190358.4,266.073,260.147,-0.140762
12061,190548,266.391,260.465,-0.141251
12073,190737.6,266.711,260.783,-0.147661
12085,190927.2,267.024,261.101,-0.154538
12097,191116.8,267.334,261.42,-0.153786
12109,191306.4,267.65,261.738,-0.155615
12121,191496,267.971,262.056,-0.153488
12133,191685.6,268.292,262.373,-0.165743
12145,191875.2,268.606,262.692,-0.169578
12157,192064.8,268.92,263.01,-0.163756
12169,192254.4,269.238,263.329,-0.159254
12181,192444,269.557,263.647,-0.159453
12193,192633.6,269.878,263.967,-0.170478
12205,192823.2,270.193,264.286,-0.177599
12217,193012.8,270.499,264.605,-0.181217
12229,193202.4,270.811,264.923,-0.175431
12241,193392,271.129,265.241,-0.182292
12253,193581.6,271.447,265.559,-0.18282
12265,193771.2,271.7682,265.877,-0.182938
12277,193960.8,272.08,266.196,-0.181414
12289,194150.4,272.39,266.514,-0.180421
12301,194340,272.707,266.831,-0.189154
12313,194529.6,273.028,267.149,-0.194346
12325,194719.2,273.349,267.468,-0.197254
12337,194908.8,273.666,267.786,-0.194893
12349,195098.4,273.974,268.104,-0.198925
12361,195288,274.288,268.421,-0.206031
12373,195477.6,274.605,268.739,-0.206596
12385,195667.2,274.924,269.056,-0.206178
12397,195856.8,275.245,269.375,-0.209626
12409,196046.4,275.554,269.693,-0.204019
12421,196236,275.862,270.011,-0.212403
12433,196425.6,276.18,270.328,-0.215708
12445,196615.2,276.502,270.645,-0.212973
12457,196804.8,276.827,270.962,-0.221591
12469,196994.4,277.138,271.2807,-0.226382
12481,197184,277.446,271.598,-0.236291
12493,197373.6,277.762,271.916,-0.251352
12505,197563.2,278.083,272.232,-0.26784
12517,197752.8,278.404,272.549,-0.301733
12529,197942.4,278.72,272.867,-0.368401
12541,198132,279.03,273.185,-0.557179
12553,198321.6,279.344,273.502,-1.539568
12565,198511.2,279.664,273.819,-20.94812
12577,198700.8,279.979,274.135,-44.3156
12589,198890.4,280.3,274.451,-55.0923
12601,199080,280.61,274.768,-40.3179
12613,199269.6,280.92,275.084,-17.0541
12625,199459.2,281.236,275.4,-8.035385
12637,199648.8,281.558,275.717,-4.096731
12649,199838.4,281.878,276.035,-2.325109
12661,200028,282.193,276.353,-1.523414
12673,200217.6,282.502,276.67,-1.160558
12685,200407.2,282.813,276.987,-1.002455
12697,200596.8,283.133,277.304,-0.932917
12709,200786.4,283.455,277.62,-0.89809
12721,200976,283.776,277.938,-0.885166
12733,201165.6,284.086,278.257,-0.881176
12745,201355.2,284.396,278.574,-0.883602
12757,201544.8,284.714,278.89,-0.867022
12769,201734.4,285.035,279.206,-0.836791
12781,201924,285.355,279.524,-0.811535
12793,202113.6,285.674,279.842,-0.792885
12805,202303.2,285.983,280.16,-0.783739
12817,202492.8,286.289,280.477,-0.781042
12829,202682.4,286.606,280.793,-0.775316
12841,202872,286.929,281.109,-0.768327
12853,203061.6,287.251,281.426,-0.762658
12865,203251.2,287.567,281.744,-0.746773
12877,203440.8,287.877,282.061,-0.687577
12889,203630.4,288.191,282.378,-0.649971
12901,203820,288.511,282.695,-0.628479
12913,204009.6,288.832,283.013,-0.617703
12925,204199.2,289.151,283.332,-0.612772
12937,204388.8,289.464,283.651,-0.606195
12949,204578.4,289.78,283.969,-0.601786
12961,204768,290.097,284.288,-0.587236
12973,204957.6,290.4152,284.607,-0.574776
12985,205147.2,290.73,284.926,-0.567176
12997,205336.8,291.038,285.244,-0.564722
13009,205526.4,291.348,285.562,-0.566132
13021,205716,291.668,285.879,-0.560918
13033,205905.6,291.989,286.196,-0.556212
13045,206095.2,292.31,286.514,-0.557065
13057,206284.8,292.622,286.833,-0.559717
13069,206474.4,292.93,287.15,-0.561767
13081,206664,293.196,287.465,-0.559681
13093,206853.6,293.189,287.769,-0.505023
13105,207043.2,293.175,288.05,-0.480148
13117,207232.8,293.169,288.311,-0.456531
13129,207422.4,293.17,288.553,-0.427505
13141,207612,293.162,288.778,-0.389191
13153,207801.6,293.152,288.987,-0.35498
13165,207991.2,293.155,289.179,-0.322009
13177,208180.8,293.162,289.358,-0.290119
13189,208370.4,293.167,289.525,-0.252992
13201,208560,293.166,289.681,-0.217907
13213,208749.6,293.155,289.825,-0.187418
13225,208939.2,293.149,289.956,-0.161966
13237,209128.8,293.151,290.079,-0.13207
13249,209318.4,293.156,290.192,-0.102171
13261,209508,293.159,290.298,-0.067498
13273,209697.6,293.158,290.397,-0.03419
13285,209887.2,293.152,290.489,-0.007634
13297,210076.8,293.152,290.573,0.016656
13309,210266.4,293.155,290.652,0.036342
13321,210456,293.162,290.725,0.057662
13333,210645.6,293.156,290.794,0.079601
13345,210835.2,293.144,290.857,0.094662
13357,211024.8,293.142,290.913,0.109329
13369,211214.4,293.15,290.966,0.12267
13381,211404,293.157,291.015,0.137704
13393,211593.6,293.162,291.061,0.145626
13405,211783.2,293.162,291.106,0.155991
13417,211972.8,293.149,291.147,0.166206
13429,212162.4,293.143,291.182,0.171719
13441,212352,293.145,291.215,0.177405
13453,212541.6,293.15,291.2459,0.190667
13465,212731.2,293.155,291.276,0.198583
13477,212920.8,293.159,291.304,0.205916
13489,213110.4,293.151,291.33,0.218348
13501,213300,293.142,291.353,0.22321
13513,213489.6,293.143,291.373,0.228009
13525,213679.2,293.151,291.393,0.233506
13537,213868.8,293.157,291.411,0.240235
13549,214058.4,293.162,291.429,0.245754
13561,214248,293.16,291.447,0.254234
13573,214437.6,293.147,291.462,0.258175
13585,214627.2,293.142,291.475,0.254883
13597,214816.8,293.145,291.487,0.252628
13609,215006.4,293.15,291.498,0.258419
13621,215196,293.154,291.509,0.265028
13633,215385.6,293.158,291.52,0.272005
13645,215575.2,293.149,291.531,0.282841
13657,215764.8,293.14,291.538,0.285402
13669,215954.4,293.142,291.546,0.286494
13681,216144,293.148,291.553,0.285109
13693,216333.6,293.154,291.559,0.288488
13705,216523.2,293.151,291.566,0.291838
13717,216712.8,293.147,291.572,0.293979
13729,216902.4,293.145,291.577,0.294639
13741,217092,293.147,291.581,0.298606
13753,217281.6,293.15,291.585,0.304151
13765,217471.2,293.151,291.59,0.308975
13777,217660.8,293.153,291.594,0.308974
13789,217850.4,293.157,291.598,0.30933
13801,218040,293.16,291.604,0.304519
13813,218229.6,293.156,291.608,0.30848
13825,218419.2,293.147,291.613,0.308352
13837,218608.8,293.147,291.615,0.304751
13849,218798.4,293.15,291.617,0.305016
13861,218988,293.156,291.62,0.30748
13873,219177.6,293.155,291.623,0.310076
13885,219367.2,293.148,291.626,0.312563
13897,219556.8,293.142,291.628,0.30883
13909,219746.4,293.143,291.628,0.308646
13921,219936,293.149,291.629,0.311836
13933,220125.6,293.155,291.631,0.31635
13945,220315.2,293.149,291.633,0.320703
13957,220504.8,293.145,291.634,0.322822
13969,220694.4,293.15,291.635,0.32402
13981,220884,293.156,291.636,0.326858
13993,221073.6,293.159,291.638,0.327457
14005,221263.2,293.158,291.64,0.331418
14017,221452.8,293.158,291.642,0.332609
14029,221642.4,293.158,291.646,0.335678
14041,221832,293.151,291.647,0.336702
14053,222021.6,293.141,291.648,0.328622
14065,222211.2,293.136,291.648,0.323313
14077,222400.8,293.141,291.647,0.323929
14089,222590.4,293.15,291.646,0.324223
14101,222780,293.156,291.646,0.323947
14113,222969.6,293.159,291.647,0.325824
14125,223159.2,293.159,291.648,0.328369
14137,223348.8,293.149,291.65,0.325524
14149,223538.4,293.142,291.65,0.321717
14161,223728,293.142,291.649,0.321251
14173,223917.6,293.149,291.649,0.3247
14185,224107.2,293.154,291.649,0.324147
14197,224296.8,293.149,291.65,0.3236
14209,224486.4,293.141,291.649,0.324182
14221,224676,293.142,291.648,0.323255
14233,224865.6,293.145,291.648,0.326912
14245,225055.2,293.153,291.648,0.329953
14257,225244.8,293.158,291.649,0.330638
14269,225434.4,293.154,291.649,0.329831
14281,225624,293.152,291.65,0.332181
14293,225813.6,293.154,291.65,0.327268
14305,226003.2,293.158,291.651,0.328713
14317,226192.8,293.157,291.653,0.329047
14329,226382.4,293.143,291.653,0.32676
14341,226572,293.139,291.652,0.326127
14353,226761.6,293.145,291.651,0.329042
14365,226951.2,293.152,291.65,0.329503
14377,227140.8,293.157,291.65,0.33085
14389,227330.4,293.158,291.651,0.33104
14401,227520,293.149,291.652,0.330492
14413,227709.6,293.144,291.651,0.329456
14425,227899.2,293.149,291.65,0.327297
14437,228088.8,293.155,291.652,0.328679
14449,228278.4,293.156,291.653,0.33245
14461,228468,293.143,291.653,0.335997
14473,228657.6,293.137,291.652,0.332566
14485,228847.2,293.141,291.651,0.330355
14497,229036.8,293.148,291.649,0.330522
14509,229226.4,293.155,291.65,0.336298
14521,229416,293.156,291.65,0.34049
14533,229605.6,293.148,291.65,0.339759
14545,229795.2,293.145,291.649,0.337513
14557,229984.8,293.147,291.649,0.338291
14569,230174.4,293.149,291.648,0.340215
14581,230364,293.154,291.648,0.3343
14593,230553.6,293.159,291.648,0.332406
14605,230743.2,293.162,291.649,0.336016
14617,230932.8,293.161,291.651,0.33453
14629,231122.4,293.148,291.652,0.333556
14641,231312,293.142,291.652,0.328143
14653,231501.6,293.146,291.651,0.325892
14665,231691.2,293.149,291.651,0.327757
14677,231880.8,293.154,291.652,0.330291
14689,232070.4,293.146,291.652,0.335848
14701,232260,293.141,291.652,0.335307
14713,232449.6,293.143,291.65,0.334766
14725,232639.2,293.146,291.648,0.336097
14737,232828.8,293.153,291.649,0.336782
14749,233018.4,293.158,291.649,0.335233
14761,233208,293.156,291.65,0.33677
14773,233397.6,293.149,291.651,0.333948
14785,233587.2,293.146,291.65,0.327487
14797,233776.8,293.149,291.648,0.328853
14809,233966.4,293.152,291.649,0.329601
14821,234156,293.155,291.65,0.333522
14833,234345.6,293.146,291.65,0.336269
14845,234535.2,293.14,291.649,0.334945
14857,234724.8,293.1416,291.648,0.334686
14869,234914.4,293.146,291.647,0.337773
14881,235104,293.152,291.646,0.336996
14893,235293.6,293.156,291.648,0.335959
14905,235483.2,293.156,291.648,0.331686
14917,235672.8,293.153,291.649,0.335031
14929,235862.4,293.144,291.65,0.338567
14941,236052,293.141,291.648,0.337502
14953,236241.6,293.144,291.647,0.338297
14965,236431.2,293.147,291.646,0.338902
14975,236589.2,293.148,291.646,0.339847