File: i_data/water_tests/archive/H2O-NH3_6.0g.csv
HeatFlow :,,,,
 Initial Mass : 6000 mg,,,,
 Molar Mass : 18 g/mol,,,,
,,,,
Baseline :,,,,
 Initial Mass : 6000 mg,,,,
 Molar Mass : 18 g/mol,,,,
,,,,
Index,Time(s),Furnace Temperature(K),Sample Temperature(K),HeatFlow(mW)
1,0,293.197,291.632,261.897
13,189.6,285.853,291.42,149.402
25,379.2,280.49,290.788,97.247
37,568.8,276.014,289.842,84.9945
49,758.4,272.136,288.658,95.28187
61,948,268.715,287.296,115.913
73,1137.6,265.631,285.798,139.472
85,1327.2,262.78,284.199,162.101
97,1516.8,260.122,282.521,182.102
109,1706.4,257.638,280.784,198.973
121,1896,255.296,279.005,212.753
133,2085.6,253.075,277.196,223.657
145,2275.2,250.93,275.37,232.101
157,2464.8,248.834,273.528,238.771
169,2654.4,246.79,271.678,244.423
181,2844,244.806,269.823,249.453
193,3033.6,242.88,267.969,253.284
205,3223.2,241.006,266.12,255.702
217,3412.8,239.15,264.2775,257.496
229,3602.4,237.297,262.441,258.409
241,3792,235.469,260.611,258.576
253,3981.6,233.676,258.793,257.541
265,4171.2,231.923,257.022,1896.62
277,4360.8,230.207,255.306,1901.89
289,4550.4,228.495,253.591,1907.26
301,4740,226.788,251.861,1604.03
313,4929.6,225.109,250.111,887.205
325,5119.2,223.452,248.357,497.447
337,5308.8,221.787,246.611,304.426
349,5498.4,220.086,244.872,207.535
361,5688,218.376,243.142,158.31
373,5877.6,216.682,241.419,133.61
385,6067.2,215.025,239.709,120.824
397,6256.8,213.399,238.008,114.099
409,6446.4,211.8,236.322,110.487
421,6636,210.184,234.646,107.432
433,6825.6,208.56,232.983,105.065
445,7015.2,206.969,231.33,102.837
457,7204.8,205.414,229.689,101.77
469,7394.4,203.884,228.0614,100.549
481,7584,202.389,226.448,99.1662
493,7773.6,200.896,224.848,97.78181
505,7963.2,199.404,223.261,96.4728
517,8152.8,197.93,221.688,95.10525
529,8342.4,196.493,220.127,93.7074
541,8532,195.084,218.583,92.6492
553,8721.6,193.714,217.053,91.004
565,8911.2,192.337,215.539,90.0451
577,9100.8,190.938,214.04,88.9191
589,9290.4,189.558,212.553,87.48613
601,9480,188.206,211.076,86.2353
613,9669.6,186.89,209.613,85.3251
625,9859.2,185.616,208.168,84.3463
637,10048.8,184.382,206.739,82.8998
649,10238.4,183.151,205.326,81.6981
661,10428,181.929,203.93,80.2802
673,10617.6,180.732,202.55,78.4062
685,10807.2,179.554,201.185,77.497
697,10996.8,178.382,199.836,76.798
709,11186.4,177.188,198.501,75.5264
721,11376,175.98,197.18,73.7942
733,11565.6,174.784,195.868,71.6633
745,11755.2,173.622,194.569,71.64477
757,11944.8,172.494,193.283,70.5799
769,12134.4,171.397,192.01,67.4663
781,12324,170.347,190.752,66.3162
793,12513.6,169.325,189.511,65.5529
805,12703.2,168.309,188.286,64.8551
817,12892.8,167.3,187.076,64.1281
829,13082.4,166.315,185.883,63.2328
841,13272,165.3534,184.704,61.6854
853,13461.6,164.42,183.543,60.865
865,13651.2,163.499,182.397,59.4999
877,13840.8,162.58,181.267,58.4334
889,14030.4,161.681,180.153,57.678
901,14220,160.806,179.055,56.9846
913,14409.6,159.956,177.971,55.7728
925,14599.2,159.136,176.906,54.374
937,14788.8,158.339,175.857,53.5589
949,14978.4,157.567,174.825,51.7519
961,15168,156.816,173.81,51.16708
973,15357.6,156.097,172.814,50.0529
985,15547.2,155.3757,171.835,49.5162
997,15736.8,154.653,170.873,48.68344
1009,15926.4,153.908,169.926,47.6482
1021,16116,153.16,168.992,46.5798
1033,16305.6,152.399,168.07,45.6409
1045,16495.2,151.632,167.16,44.9156
1057,16684.8,150.875,166.259,43.8476
1069,16874.4,150.148,165.368,42.4309
1081,17064,149.443,164.49,41.6504
1093,17253.6,148.747,163.622,40.89188
1105,17443.2,148.017,162.764,40.3373
1117,17632.8,147.271,161.915,40.0302
1129,17822.4,146.528,161.073,39.7873
1141,18012,145.812,160.239,39.1235
1153,18201.6,145.132,159.413,38.7415
1165,18391.2,144.485,158.598,38.939
1177,18580.8,143.876,157.795,38.43071
1189,18770.4,143.28,157.003,37.2108
1201,18960,142.675,156.224,36.814
1213,19149.6,142.07,155.455,35.71794
1225,19339.2,141.483,154.697,34.6038
1237,19528.8,140.921,153.95,34.2163
1249,19718.4,140.382,153.215,33.9703
1261,19908,139.869,152.492,32.8532
1273,20097.6,139.369,151.782,32.3954
1285,20287.2,138.847,151.083,31.74527
1297,20476.8,138.286,150.395,31.071
1309,20666.4,137.706,149.713,30.5883
1321,20856,137.131,149.039,29.81239
1333,21045.6,136.581,148.371,29.7768
1345,21235.2,136.064,147.711,29.48112
1357,21424.8,135.579,147.06,29.081
1369,21614.4,135.124,146.42,28.3916
1381,21804,134.66,145.791,27.8021
1393,21993.6,134.179,145.171,27.3589
1405,22183.2,133.696,144.558,26.9831
1417,22372.8,133.228,143.954,27.0297
1429,22562.4,132.782,143.359,26.47754
1441,22752,132.364,142.773,25.5682
1453,22941.6,131.978,142.197,25.3846
1465,23131.2,131.582,141.632,24.876
1477,23320.8,131.157,141.076,24.34605
1489,23510.4,130.724,140.527,23.7479
1501,23700,130.297,139.986,23.20996
1513,23889.6,129.89,139.451,22.8466
1525,24079.2,129.51,138.924,22.39786
1537,24268.8,129.166,138.407,21.8783
1549,24458.4,128.835,137.9,21.3538
1561,24648,128.514,137.402,20.8926
1573,24837.6,128.193,136.916,20.7096
1585,25027.2,127.869,136.438,20.1048
1597,25216.8,127.55,135.969,19.7691
1609,25406.4,127.226,135.508,19.1372
1621,25596,126.901,135.0548,18.8627
1633,25785.6,126.584,134.61,18.5142
1645,25975.2,126.271,134.173,18.1249
1657,26164.8,125.965,133.741,17.7576
1669,26354.4,125.674,133.318,17.3318
1681,26544,125.404,132.903,16.9346
1693,26733.6,125.155,132.495,16.30962
1705,26923.2,124.918,132.097,15.8442
1717,27112.8,124.67,131.709,15.6787
1729,27302.4,124.412,131.327,15.4879
1741,27492,124.153,130.953,15.2074
1753,27681.6,123.906,130.585,14.7782
1765,27871.2,123.678,130.224,14.363
1777,28060.8,123.479,129.872,14.2307
1789,28250.4,123.296,129.528,13.7627
1801,28440,123.125,129.193,13.3478
1813,28629.6,122.954,128.868,12.7652
1825,28819.2,122.778,128.551,12.4084
1837,29008.8,122.598,128.242,12.3019
1849,29198.4,122.425,127.94,11.853
1861,29388,122.262,127.645,11.5372
1873,29577.6,122.105,127.357,11.1347
1885,29767.2,121.953,127.078,10.8271
1897,29956.8,121.798,126.804,10.3636
1909,30146.4,121.632,126.537,9.977349
1921,30336,121.454,126.276,9.865371
1933,30525.6,121.271,126.018,9.622667
1945,30715.2,121.096,125.765,9.467651
1957,30904.8,120.932,125.517,9.389814
1969,31094.4,120.775,125.273,9.152048
1981,31284,120.607,125.035,9.00357
1993,31473.6,120.421,124.8,8.672928
2005,31663.2,120.225,124.566,8.679243
2017,31852.8,120.034,124.335,8.460748
2029,32042.4,119.856,124.107,8.466218
2041,32232,119.696,123.881,8.291306
2053,32421.6,119.543,123.66,8.098083
2065,32611.2,119.377,123.441,7.907061
2077,32800.8,119.196,123.226,7.815411
2089,32990.4,119.008,123.011,7.605642
2101,33180,118.825,122.799,7.62325
2113,33369.6,118.656,122.589,7.528618
2125,33559.2,118.503,122.382,7.313329
2137,33748.8,118.364,122.178,7.277899
2149,33938.4,118.224,121.977,7.057692
2161,34128,118.081,121.78,6.875246
2173,34317.6,117.932,121.585,6.738478
2185,34507.2,117.777,121.393,6.674902
2197,34696.8,117.616,121.202,6.60189
2209,34886.4,117.45,121.014,6.45019
2221,35076,117.28,120.826,6.30851
2233,35265.6,117.107,120.639,6.193319
2245,35455.2,116.93,120.452,6.182574
2257,35644.8,116.75,120.267,6.165402
2269,35834.4,116.568,120.081,6.204195
2281,36024,116.385,119.897,6.136181
2293,36213.6,116.2,119.712,6.118608
2305,36403.2,116.015,119.527,6.038991
2317,36592.8,115.836,119.341,6.11311
2329,36782.4,115.663,119.157,6.15786
2341,36972,115.493,118.973,6.017797
2353,37161.6,115.323,118.79,5.980626
2365,37351.2,115.155,118.608,6.07952
2377,37540.8,114.99,118.427,5.969864
2389,37730.4,114.827,118.246,5.931237
2401,37920,114.665,118.067,6.002409
2413,38109.6,114.502,117.888,5.846581
2425,38299.2,114.338,117.711,5.844103
2437,38488.8,114.169,117.534,5.946029
2449,38678.4,114.002,117.356,5.85686
2461,38868,113.833,117.181,5.868238
2473,39057.6,113.665,117.005,5.73519
2485,39247.2,113.496,116.83,5.69133
2497,39436.8,113.334,116.655,5.63784
2509,39626.4,113.189,116.481,5.665622
2521,39816,113.059,116.31,5.707324
2533,40005.6,112.929,116.14,5.669867
2545,40195.2,112.788,115.973,5.647156
2557,40384.8,112.636,115.807,5.490351
2569,40574.4,112.486,115.64,5.424016
2581,40764,112.348,115.476,5.383807
2593,40953.6,112.226,115.313,5.312004
2605,41143.2,112.117,115.154,5.176647
2617,41332.8,112.002,114.996,5.079976
2629,41522.4,111.871,114.84,5.140156
2641,41712,111.725,114.685,5.074721
2653,41901.6,111.573,114.53,5.090114
2665,42091.2,111.424,114.376,4.971108
2677,42280.8,111.289,114.223,4.906444
2689,42470.4,111.174,114.07,4.937976
2701,42660,111.07,113.92,4.865156
2713,42849.6,110.958,113.773,4.793598
2725,43039.2,110.827,113.628,4.721864
2737,43228.8,110.679,113.481,4.665172
2749,43418.4,110.526,113.335,4.657238
2761,43608,110.38,113.189,4.727727
2773,43797.6,110.25,113.043,4.678764
2785,43987.2,110.136,112.899,4.605586
2797,44176.8,110.021,112.756,4.638956
2809,44366.4,109.897,112.614,4.613123
2821,44556,109.77,112.473,4.523981
2833,44745.6,109.646,112.334,4.500063
2845,44935.2,109.534,112.194,4.411515
2857,45124.8,109.43,112.057,4.397461
2869,45314.4,109.321,111.922,4.399906
2881,45504,109.202,111.788,4.365786
2893,45693.6,109.08,111.654,4.29042
2905,45883.2,108.964,111.522,4.197629
2917,46072.8,108.86,111.389,4.188724
2929,46262.4,108.758,111.259,4.204086
2941,46452,108.65,111.131,4.144786
2953,46641.6,108.535,111.003,4.072378
2965,46831.2,108.421,110.877,4.021737
2977,47020.8,108.318,110.751,3.962644
2989,47210.4,108.226,110.626,3.919204
3001,47400,108.135,110.504,3.870646
3013,47589.6,108.037,110.383,3.794678
3025,47779.2,107.932,110.263,3.736869
3037,47968.8,107.83,110.143,3.710952
3049,48158.4,107.739,110.025,3.686824
3061,48348,107.656,109.909,3.626172
3073,48537.6,107.569,109.794,3.566944
3085,48727.2,107.473,109.682,3.462673
3097,48916.8,107.373,109.569,3.468051
3109,49106.4,107.275,109.457,3.437851
3121,49296,107.188,109.347,3.37471
3133,49485.6,107.108,109.237,3.316799
3145,49675.2,107.026,109.129,3.278446
3157,49864.8,106.934,109.023,3.238133
3169,50054.4,106.828,108.916,3.202142
3181,50244,106.709,108.81,3.148838
3193,50433.6,106.582,108.702,3.142891
3205,50623.2,106.457,108.594,3.16776
3217,50812.8,106.344,108.485,3.173512
3229,51002.4,106.236,108.376,3.16416
3241,51192,106.123,108.266,3.185997
3253,51381.6,105.997,108.156,3.186747
3265,51571.2,105.861,108.046,3.191935
3277,51760.8,105.723,107.933,3.238587
3289,51950.4,105.591,107.82,3.314399
3301,52140,105.477,107.706,3.355559
3313,52329.6,105.377,107.592,3.354976
3325,52519.2,105.277,107.479,3.312217
3337,52708.8,105.167,107.366,3.289696
3349,52898.4,105.053,107.254,3.259819
3361,53088,104.945,107.142,3.233688
3373,53277.6,104.849,107.029,3.22821
3385,53467.2,104.764,106.919,3.249726
3397,53656.8,104.681,106.81,3.229835
3409,53846.4,104.59,106.701,3.160458
3421,54036,104.488,106.594,3.104997
3433,54225.6,104.383,106.486,3.069253
3445,54415.2,104.287,106.379,3.075936
3457,54604.8,104.199,106.272,3.047767
3469,54794.4,104.107,106.167,3.005422
3481,54984,103.998,106.062,3.013958
3493,55173.6,103.877,105.956,2.974757
3505,55363.2,103.751,105.849,3.000979
3517,55552.8,103.63,105.741,3.005759
3529,55742.4,103.527,105.634,3.017912
3541,55932,103.437,105.526,3.048136
3553,56121.6,103.347,105.42,3.011062
3565,56311.2,103.247,105.314,3.003571
3577,56500.8,103.132,105.208,2.967032
3589,56690.4,103.01,105.101,2.957254
3601,56880,102.891,104.994,2.970092
3613,57069.6,102.787,104.887,2.971306
3625,57259.2,102.693,104.78,2.99713
3637,57448.8,102.595,104.673,2.993171
3649,57638.4,102.482,104.567,2.966187
3661,57828,102.351,104.459,2.983329
3673,58017.6,102.213,104.351,3.006023
3685,58207.2,102.081,104.24,3.054188
3697,58396.8,101.966,104.13,3.082569
3709,58586.4,101.865,104.019,3.105496
3721,58776,101.771,103.908,3.083457
3733,58965.6,101.679,103.799,3.040795
3745,59155.2,101.59,103.691,3.005567
3757,59344.8,101.509,103.584,2.95586
3769,59534.4,101.43,103.478,2.90604
3781,59724,101.337,103.373,2.88688
3793,59913.6,101.215,103.269,2.89323
3805,60103.2,101.066,103.162,2.896709
3817,60292.8,100.905,103.053,2.903532
3829,60482.4,100.753,102.941,2.960691
3841,60672,100.623,102.828,2.995634
3853,60861.6,100.508,102.713,3.064901
3865,61051.2,100.396,102.6,3.098686
3877,61240.8,100.269,102.485,3.088389
3889,61430.4,100.132,102.37,3.112403
3901,61620,99.9977,102.253,3.151053
3913,61809.6,99.8791,102.136,3.196714
3925,61999.2,99.7808,102.019,3.150467
3937,62188.8,99.6947,101.905,3.11202
3949,62378.4,99.5896,101.791,3.083429
3961,62568,99.4532,101.675,3.066446
3973,62757.6,99.2996,101.559,3.105257
3985,62947.2,99.1448,101.44,3.156855
3997,63136.8,99.0036,101.321,3.198583
4009,63326.4,98.88201,101.2,3.219446
4021,63516,98.7672,101.08,3.223326
4033,63705.6,98.63317,100.958,3.218561
4045,63895.2,98.4785,100.836,3.23353
4057,64084.8,98.3171,100.712,3.262302
4069,64274.4,98.1617,100.586,3.326685
4081,64464,98.02088,100.458,3.379535
4093,64653.6,97.8944,100.331,3.432143
4105,64843.2,97.7658,100.203,3.417689
4117,65032.8,97.624,100.074,3.412638
4129,65222.4,97.4734,99.9447,3.45003
4141,65412,97.321,99.81449,3.475056
4153,65601.6,97.179,99.6826,3.47083
4165,65791.2,97.053,99.5504,3.469311
4177,65980.8,96.9415,99.4203,3.466038
4189,66170.4,96.8241,99.2893,3.458046
4201,66360,96.6965,99.1601,3.459475
4213,66549.6,96.5585,99.029,3.44434
4225,66739.2,96.4175,98.8989,3.446471
4237,66928.8,96.2813,98.7679,3.43707
4249,67118.4,96.1594,98.6379,3.442944
4261,67308,96.0523,98.5068,3.427392
4273,67497.6,95.9521,98.379,3.401816
4285,67687.2,95.8367,98.25083,3.365946
4297,67876.8,95.7002,98.1235,3.336475
4309,68066.4,95.55036,97.99555,3.331265
4321,68256,95.3996,97.866,3.358999
4333,68445.6,95.2583,97.7348,3.35356
4345,68635.2,95.1304,97.6037,3.358413
4357,68824.8,95.0152,97.4734,3.355693
4369,69014.4,94.8963,97.3438,3.360866
4381,69204,94.7591,97.2138,3.344694
4393,69393.6,94.6131,97.08364,3.335739
4405,69583.2,94.4647,96.9531,3.360636
4417,69772.8,94.3214,96.8202,3.375287
4429,69962.4,94.1901,96.6876,3.406586
4441,70152,94.0739,96.55564,3.408821
4453,70341.6,93.9686,96.4247,3.377015
4465,70531.2,93.86434,96.2948,3.342328
4477,70720.8,93.7516,96.1667,3.318296
4489,70910.4,93.63558,96.0383,3.285162
4501,71100,93.5229,95.9125,3.271758
4513,71289.6,93.4214,95.7865,3.226566
4525,71479.2,93.3305,95.662,3.2001
4537,71668.8,93.245,95.5393,3.144141
4549,71858.4,93.162,95.4198,3.088671
4561,72048,93.0833,95.3013,3.029903
4573,72237.6,93.0096,95.186,2.967768
4585,72427.2,92.92887,95.0726,2.87278
4597,72616.8,92.83364,94.9604,2.808519
4609,72806.4,92.7243,94.849,2.783537
4621,72996,92.6039,94.7366,2.736682
4633,73185.6,92.4822,94.6245,2.714067
4645,73375.2,92.369,94.5121,2.730964
4657,73564.8,92.2681,94.4,2.708653
4669,73754.4,92.1813,94.2883,2.694072
4681,73944,92.098,94.1785,2.657811
4693,74133.6,92.008,94.0699,2.636696
4705,74323.2,91.90621,93.9617,2.592819
4717,74512.8,91.8049,93.8544,2.571923
4729,74702.4,91.7097,93.7471,2.562369
4741,74892,91.6263,93.64057,2.557048
4753,75081.6,91.554,93.5357,2.535649
4765,75271.2,91.4786,93.4325,2.476723
4777,75460.8,91.389,93.33074,2.440501
4789,75650.4,91.282,93.2289,2.429224
4801,75840,91.1698,93.1261,2.406503
4813,76029.6,91.06037,93.0245,2.405194
4825,76219.2,90.9609,92.9219,2.39208
4837,76408.8,90.8743,92.8199,2.389329
4849,76598.4,90.7968,92.7188,2.372196
4861,76788,90.71517,92.6191,2.348172
4873,76977.6,90.6237,92.51969,2.306117
4885,77167.2,90.5239,92.4205,2.292418
4897,77356.8,90.4255,92.322,2.280124
4909,77546.4,90.33396,92.2233,2.287644
4921,77736,90.2545,92.12583,2.285771
4933,77925.6,90.18595,92.0291,2.257864
4945,78115.2,90.1174,91.93363,2.234581
4957,78304.8,90.02561,91.839,2.208345
4969,78494.4,89.9166,91.744,2.171925
4981,78684,89.8013,91.6491,2.161185
4993,78873.6,89.6898,91.5523,2.15337
5005,79063.2,89.5879,91.4553,2.168793
5017,79252.8,89.4986,91.3584,2.190428
5029,79442.4,89.421,91.2617,2.182254
5041,79632,89.346,91.1663,2.17841
5053,79821.6,89.266,91.0721,2.156304
5065,80011.2,89.1841,90.9786,2.128307
5077,80200.8,89.1063,90.8859,2.103896
5089,80390.4,89.0388,90.7938,2.083089
5101,80580,88.9795,90.7037,2.037323
5113,80769.6,88.92063,90.6147,1.990726
5125,80959.2,88.8496,90.5271,1.965649
5137,81148.8,88.7687,90.4405,1.939411
5149,81338.4,88.6828,90.3547,1.913114
5161,81528,88.5989,90.2686,1.889352
5173,81717.6,88.5232,90.1826,1.875848
5185,81907.2,88.4577,90.0977,1.856779
5197,82096.8,88.4021,90.0133,1.828463
5209,82286.4,88.34339,89.9318,1.77609
5221,82476,88.2746,89.8509,1.75535
5233,82665.6,88.1974,89.7707,1.731245
5245,82855.2,88.1196,89.6896,1.722637
5257,83044.8,88.0471,89.6091,1.72251
5269,83234.4,87.9833,89.5304,1.709771
5281,83424,87.9303,89.452,1.68812
5293,83613.6,87.8784,89.3749,1.657518
5305,83803.2,87.9326,89.3004,1.603834
5317,83992.8,88.3565,89.2401,1.420328
5329,84182.4,88.8932,89.2074,0.99867
5341,84372,89.3507,89.203,0.37164
5353,84561.6,89.724,89.2226,-0.289905
5365,84751.2,90.0532,89.26,-0.898711
5377,84940.8,90.3663,89.3128,-1.44602
5389,85130.4,90.6711,89.38,-1.909091
5401,85320,90.9746,89.4592,-2.317576
5413,85509.6,91.2885,89.5523,-2.698048
5425,85699.2,91.61,89.6564,-3.08009
5437,85888.8,91.934,89.7741,-3.429886
5449,86078.4,92.25704,89.9022,-3.777765
5461,86268,92.5773,90.0413,-4.101142
5473,86457.6,92.89176,90.19,-4.404489
5485,86647.2,93.2049,90.3486,-4.691096
5497,86836.8,93.5193,90.5155,-4.957374
5509,87026.4,93.8376,90.6905,-5.211423
5521,87216,94.1583,90.8736,-5.441187
5533,87405.6,94.4767,91.0646,-5.672648
5545,87595.2,94.7893,91.2619,-5.888721
5557,87784.8,95.0977,91.4648,-6.078611
5569,87974.4,95.4111,91.674,-6.271758
5581,88164,95.7268,91.8889,-6.463811
5593,88353.6,96.0467,92.1089,-6.625534
5605,88543.2,96.3694,92.3345,-6.796334
5617,88732.8,96.6907,92.5646,-6.957149
5629,88922.4,97.0111,92.8012,-7.108614
5641,89112,97.3299,93.0406,-7.257808
5653,89301.6,97.6425,93.284,-7.391087
5665,89491.2,97.9479,93.5314,-7.516748
5677,89680.8,98.2609,93.78179,-7.627423
5689,89870.4,98.5803,94.0353,-7.725694
5701,90060,98.901,94.2925,-7.843784
5713,90249.6,99.2236,94.55184,-7.956962
5725,90439.2,99.5449,94.8154,-8.064747
5737,90628.8,99.8604,95.0806,-8.160678
5749,90818.4,100.165,95.3486,-8.263333
5761,91008,100.47,95.6175,-8.346225
5773,91197.6,100.784,95.8887,-8.415327
5785,91387.2,101.106,96.1622,-8.481161
5797,91576.8,101.429,96.4379,-8.547926
5809,91766.4,101.754,96.7153,-8.627084
5821,91956,102.075,96.9951,-8.712259
5833,92145.6,102.386,97.2772,-8.786886
5845,92335.2,102.69,97.5595,-8.855659
5857,92524.8,103.001,97.8431,-8.928826
5869,92714.4,103.32,98.1272,-8.969821
5881,92904,103.643,98.4129,-9.029288
5893,93093.6,103.965,98.7005,-9.089369
5905,93283.2,104.286,98.989,-9.149795
5917,93472.8,104.603,99.2807,-9.208699
5929,93662.4,104.911,99.5719,-9.269067
5941,93852,105.213,99.8639,-9.320687
5953,94041.6,105.523,100.155,-9.35296
5965,94231.2,105.84,100.448,-9.377643
5977,94420.8,106.165,100.742,-9.420257
5989,94610.4,106.492,101.036,-9.481952
6001,94800,106.815,101.333,-9.538582
6013,94989.6,107.134,101.629,-9.583021
6025,95179.2,107.45,101.927,-9.644992
6037,95368.8,107.764,102.226,-9.697798
6049,95558.4,108.072,102.524,-9.747398
6061,95748,108.384,102.824,-9.783851
6073,95937.6,108.702,103.124,-9.824149
6085,96127.2,109.023,103.424,-9.863882
6097,96316.8,109.34,103.726,-9.896494
6109,96506.4,109.65,104.027,-9.947293
6121,96696,109.957,104.328,-9.974494
6133,96885.6,110.272,104.629,-10.0042
6145,97075.2,110.593,104.93,-10.0351
6157,97264.8,110.916,105.233,-10.0583
6169,97454.4,111.24,105.537,-10.09644
6181,97644,111.561,105.842,-10.1492
6193,97833.6,111.875,106.146,-10.1876
6205,98023.2,112.177,106.451,-10.2381
6217,98212.8,112.481,106.754,-10.2728
6229,98402.4,112.799,107.058,-10.2959
6241,98592,113.123,107.362,-10.3146
6253,98781.6,113.448,107.667,-10.3457
6265,98971.2,113.767,107.972,-10.38964
6277,99160.8,114.086,108.279,-10.437
6289,99350.4,114.392,108.586,-10.47491
6301,99540,114.693,108.891,-10.5045
6313,99729.6,115.003,109.197,-10.5125
6325,99919.2,115.325,109.502,-10.5239
6337,100108.8,115.653,109.808,-10.5399
6349,100298.4,115.978,110.115,-10.5754
6361,100488,116.302,110.422,-10.6145
6373,100677.6,116.616,110.729,-10.65288
6385,100867.2,116.919,111.0371,-10.6953
6397,101056.8,117.225,111.344,-10.7229
6409,101246.4,117.541,111.652,-10.7378
6421,101436,117.865,111.959,-10.7535
6433,101625.6,118.187,112.267,-10.7769
6445,101815.2,118.509,112.576,-10.8031
6457,102004.8,118.828,112.885,-10.8406
6469,102194.4,119.138,113.194,-10.8821
6481,102384,119.44,113.503,-10.906
6493,102573.6,119.752,113.811,-10.9153
6505,102763.2,120.074,114.119,-10.9237
6517,102952.8,120.397,114.428,-10.9435
6529,103142.4,120.722,114.738,-10.96321
6541,103332,121.04,115.049,-11.00193
6553,103521.6,121.348,115.359,-11.0392
6565,103711.2,121.652,115.668,-11.0497
6577,103900.8,121.954,115.977,-11.0618
6589,104090.4,122.273,116.284,-11.0594
6601,104280,122.599,116.593,-11.0602
6613,104469.6,122.926,116.901,-11.0812
6625,104659.2,123.25,117.212,-11.1189
6637,104848.8,123.571,117.523,-11.1519
6649,105038.4,123.89,117.833,-11.1811
6661,105228,124.199,118.145,-11.23036
6673,105417.6,124.508,118.456,-11.2579
6685,105607.2,124.824,118.767,-11.2756
6697,105796.8,125.143,119.078,-11.3001
6709,105986.4,125.462,119.389,-11.327
6721,106176,125.779,119.701,-11.3504
6733,106365.6,126.08,120.012,-11.3795
6745,106555.2,126.379,120.323,-11.3904
6757,106744.8,126.691,120.632,-11.3872
6769,106934.4,127.017,120.941,-11.3812
6781,107124,127.344,121.251,-11.3856
6793,107313.6,127.669,121.562,-11.4091
6805,107503.2,127.993,121.874,-11.4417
6817,107692.8,128.312,122.186,-11.4883
6829,107882.4,128.624,122.498,-11.526
6841,108072,128.937,122.81,-11.55921
6853,108261.6,129.251,123.122,-11.5914
6865,108451.2,129.569,123.435,-11.6163
6877,108640.8,129.887,123.749,-11.6443
6889,108830.4,130.192,124.062,-11.6741
6901,109020,130.492,124.374,-11.6857
6913,109209.6,130.803,124.684,-11.6861
6925,109399.2,131.127,124.995,-11.6815
6937,109588.8,131.452,125.306,-11.6822
6949,109778.4,131.779,125.618,-11.707
6961,109968,132.102,125.931,-11.7414
6973,110157.6,132.422,126.244,-11.7822
6985,110347.2,132.732,126.558,-11.8238
6997,110536.8,133.033,126.871,-11.8585
7009,110726.4,133.338,127.183,-11.8657
7021,110916,133.656,127.494,-11.86688
7033,111105.6,133.981,127.806,-11.8716
7045,111295.2,134.307,128.118,-11.8874
7057,111484.8,134.633,128.431,-11.9199
7069,111674.4,134.952,128.745,-11.964
7081,111864,135.267,129.06,-12.0114
7093,112053.6,135.572,129.374,-12.0509
7105,112243.2,135.881,129.688,-12.0769
7117,112432.8,136.189,130.002,-12.0919
7129,112622.4,136.506,130.315,-12.0951
7141,112812,136.821,130.629,-12.1072
7153,113001.6,137.142,130.942,-12.1166
7165,113191.2,137.466,131.255,-12.1403
7177,113380.8,137.787,131.57,-12.1688
7189,113570.4,138.107,131.884,-12.2091
7201,113760,138.415,132.199,-12.2423
7213,113949.6,138.714,132.514,-12.2684
7225,114139.2,139.024,132.827,-12.27332
7237,114328.8,139.344,133.14,-12.2748
7249,114518.4,139.671,133.453,-12.2798
7261,114708,139.995,133.767,-12.3043
7273,114897.6,140.319,134.082,-12.3302
7285,115087.2,140.641,134.398,-12.3792
7297,115276.8,140.9466,134.714,-12.4185
7309,115466.4,141.2452,135.029,-12.4495
7321,115656,141.557,135.342,-12.4573
7333,115845.6,141.88,135.657,-12.4604
7345,116035.2,142.204,135.971,-12.4671
7357,116224.8,142.531,136.286,-12.4985
7369,116414.4,142.852,136.603,-12.5329
7381,116604,143.165,136.92,-12.5724
7393,116793.6,143.476,137.237,-12.6108
7405,116983.2,143.786,137.554,-12.6391
7417,117172.8,144.096,137.87,-12.6589
7429,117362.4,144.396,138.185,-12.6794
7441,117552,144.698,138.5,-12.6682
7453,117741.6,145.007,138.812,-12.6458
7465,117931.2,145.321,139.123,-12.6158
7477,118120.8,145.643,139.434,-12.5924
7489,118310.4,145.969,139.745,-12.5824
7501,118500,146.283,140.055,-12.5845
7513,118689.6,146.604,140.366,-12.597
7525,118879.2,146.926,140.677,-12.6143
7537,119068.8,147.247,140.989,-12.6375
7549,119258.4,147.563,141.301,-12.6619
7561,119448,147.88,141.613,-12.6819
7573,119637.6,148.185,141.925,-12.7068
7585,119827.2,148.485,142.235,-12.7218
7597,120016.8,148.778,142.544,-12.7154
7609,120206.4,149.078,142.852,-12.6962
7621,120396,149.39,143.159,-12.6803
7633,120585.6,149.709,143.467,-12.6724
7645,120775.2,150.037,143.777,-12.6949
7657,120964.8,150.358,144.089,-12.7554
7669,121154.4,150.674,144.402,-12.8136
7681,121344,151.001,144.716,-12.8739
7693,121533.6,151.342,145.033,-12.9427
7705,121723.2,151.672,145.35,-12.9984
7717,121912.8,151.995,145.668,-13.053
7729,122102.4,152.306,145.986,-13.07889
7741,122292,152.635,146.304,-13.1198
7753,122481.6,152.949,146.621,-13.1375
7765,122671.2,153.265,146.938,-13.1399
7777,122860.8,153.57,147.255,-13.1321
7789,123050.4,153.909,147.573,-13.1243
7801,123240,154.223,147.89,-13.0992
7813,123429.6,154.526,148.206,-13.0868
7825,123619.2,154.859,148.523,-13.1001
7837,123808.8,155.185,148.839,-13.0763
7849,123998.4,155.499,149.155,-13.0812
7861,124188,155.816,149.471,-13.0527
7873,124377.6,156.121,149.785,-13.0372
7885,124567.2,156.426,150.101,-13.0172
7897,124756.8,156.746,150.415,-13.0391
7909,124946.4,157.07,150.73,-13.0385
7921,125136,157.391,151.045,-13.0567
7933,125325.6,157.711,151.359,-13.05123
7945,125515.2,158.029,151.674,-13.0656
7957,125704.8,158.345,151.989,-13.0762
7969,125894.4,158.656,152.304,-13.1209
7981,126084,158.97,152.617,-13.168
7993,126273.6,159.282,152.932,-13.16644
8005,126463.2,159.602,153.246,-13.1744
8017,126652.8,159.9186,153.561,-13.2056
8029,126842.4,160.229,153.875,-13.2451
8041,127032,160.544,154.191,-13.2751
8053,127221.6,160.86,154.505,-13.3078
8065,127411.2,161.175,154.821,-13.3423
8077,127600.8,161.496,155.136,-13.3667
8089,127790.4,161.808,155.452,-13.3871
8101,127980,162.113,155.767,-13.4138
8113,128169.6,162.421,156.081,-13.4305
8125,128359.2,162.742,156.396,-13.4249
8137,128548.8,163.065,156.711,-13.47061
8149,128738.4,163.39,157.027,-13.5226
8161,128928,163.709,157.344,-13.5655
8173,129117.6,164.023,157.661,-13.58488
8185,129307.2,164.324,157.978,-13.6183
8197,129496.8,164.631,158.294,-13.6447
8209,129686.4,164.95,158.609,-13.6696
8221,129876,165.271,158.924,-13.6831
8233,130065.6,165.596,159.24,-13.6954
8245,130255.2,165.92,159.557,-13.70228
8257,130444.8,166.237,159.875,-13.71211
8269,130634.4,166.551,160.193,-13.7286
8281,130824,166.864,160.511,-13.7565
8293,131013.6,167.182,160.83,-13.79344
8305,131203.2,167.498,161.149,-13.8217
8317,131392.8,167.815,161.468,-13.8857
8329,131582.4,168.126,161.787,-13.9073
8341,131772,168.442,162.105,-13.938
8353,131961.6,168.76,162.424,-13.9784
8365,132151.2,169.079,162.744,-14.0047
8377,132340.8,169.395,163.063,-14.0257
8389,132530.4,169.71,163.385,-14.0658
8401,132720,170.013,163.705,-14.0765
8413,132909.6,170.315,164.023,-14.0835
8425,133099.2,170.625,164.34,-14.0764
8437,133288.8,170.947,164.658,-14.0794
8449,133478.4,171.273,164.974,-14.0803
8461,133668,171.599,165.292,-14.0845
8473,133857.6,171.921,165.611,-14.1199
8485,134047.2,172.237,165.931,-14.1525
8497,134236.8,172.535,166.25,-14.1745
8509,134426.4,172.841,166.567,-14.2039
8521,134616,173.158,166.884,-14.1812
8533,134805.6,173.48,167.201,-14.1789
8545,134995.2,173.807,167.519,-14.1905
8557,135184.8,174.131,167.837,-14.2224
8569,135374.4,174.448,168.157,-14.2337
8581,135564,174.753,168.475,-14.2566
8593,135753.6,175.067,168.794,-14.2588
8605,135943.2,175.387,169.112,-14.2985
8617,136132.8,175.708,169.432,-14.3301
8629,136322.4,176.028,169.752,-14.3547
8641,136512,176.336,170.071,-14.4055
8653,136701.6,176.648,170.389,-14.4228
8665,136891.2,176.968,170.709,-14.4381
8677,137080.8,177.289,171.028,-14.4545
8689,137270.4,177.609,171.348,-14.4423
8701,137460,177.921,171.669,-14.4611
8713,137649.6,178.235,171.988,-14.5005
8725,137839.2,178.553,172.309,-14.513
8737,138028.8,178.871,172.63,-14.57805
8749,138218.4,179.179,172.951,-14.5987
8761,138408,179.483,173.271,-14.5887
8773,138597.6,179.8,173.59,-14.6233
8785,138787.2,180.1239,173.91,-14.6153
8797,138976.8,180.446,174.228,-14.6303
8809,139166.4,180.765,174.548,-14.6262
8821,139356,181.067,174.868,-14.6447
8833,139545.6,181.372,175.187,-14.6699
8845,139735.2,181.691,175.504,-14.6427
8857,139924.8,182.016,175.822,-14.676
8869,140114.4,182.34,176.14,-14.6699
8881,140304,182.661,176.459,-14.7253
8893,140493.6,182.974,176.779,-14.776
8905,140683.2,183.288,177.099,-14.8061
8917,140872.8,183.606,177.418,-14.7984
8929,141062.4,183.926,177.738,-14.8188
8941,141252,184.242,178.058,-14.8495
8953,141441.6,184.538,178.378,-14.8877
8965,141631.2,184.845,178.695,-14.8639
8977,141820.8,185.165,179.013,-14.8442
8989,142010.4,185.492,179.33,-14.81912
9001,142200,185.817,179.648,-14.8187
9013,142389.6,186.138,179.966,-14.8016
9025,142579.2,186.446,180.286,-14.83539
9037,142768.8,186.756,180.604,-14.8766
9049,142958.4,187.073,180.922,-14.9065
9061,143148,187.397,181.24,-14.9376
9073,143337.6,187.718,181.56,-14.9884
9085,143527.2,188.027,181.88,-15.0079
9097,143716.8,188.329,182.198,-15.0599
9109,143906.4,188.645,182.516,-15.0954
9121,144096,188.969,182.833,-15.08238
9133,144285.6,189.293,183.151,-15.0862
9145,144475.2,189.613,183.47,-15.1168
9157,144664.8,189.919,183.789,-15.14623
9169,144854.4,190.228,184.107,-15.144
9181,145044,190.545,184.425,-15.1305
9193,145233.6,190.8692,184.742,-15.1372
9205,145423.2,191.193,185.062,-15.1678
9217,145612.8,191.505,185.381,-15.198
9229,145802.4,191.806,185.699,-15.2322
9241,145992,192.119,186.016,-15.208
9253,146181.6,192.44,186.334,-15.2056
9265,146371.2,192.764,186.651,-15.2458
9277,146560.8,193.088,186.969,-15.2575
9289,146750.4,193.397,187.287,-15.2832
9301,146940,193.705,187.605,-15.29501
9313,147129.6,194.021,187.922,-15.2899
9325,147319.2,194.345,188.24,-15.3135
9337,147508.8,194.668,188.558,-15.3343
9349,147698.4,194.982,188.876,-15.3872
9361,147888,195.281,189.1948,-15.36897
9373,148077.6,195.588,189.51,-15.3998
9385,148267.2,195.909,189.826,-15.3778
9397,148456.8,196.234,190.142,-15.362
9409,148646.4,196.559,190.459,-15.374
9421,148836,196.874,190.776,-15.415
9433,149025.6,197.184,191.093,-15.4451
9445,149215.2,197.499,191.41,-15.434
9457,149404.8,197.821,191.727,-15.4353
9469,149594.4,198.142,192.044,-15.4664
9481,149784,198.457,192.363,-15.5051
9493,149973.6,198.763,192.68,-15.5598
9505,150163.2,199.076,192.997,-15.5993
9517,150352.8,199.396,193.314,-15.6086
9529,150542.4,199.719,193.631,-15.6243
9541,150732,200.043,193.949,-15.6539
9553,150921.6,200.366,194.268,-15.7328
9565,151111.2,200.68,194.589,-15.7711
9577,151300.8,200.984,194.909,-15.7756
9589,151490.4,201.291,195.229,-15.7764
9601,151680,201.61,195.548,-15.8168
9613,151869.6,201.932,195.866,-15.8424
9625,152059.2,202.244,196.186,-15.89742
9637,152248.8,202.539,196.504,-15.9146
9649,152438.4,202.85,196.819,-15.9179
9661,152628,203.174,197.134,-15.8832
9673,152817.6,203.501,197.451,-15.8558
9685,153007.2,203.824,197.768,-15.8695
9697,153196.8,204.13,198.084,-15.8924
9709,153386.4,204.435,198.4,-15.9185
9721,153576,204.752,198.714,-15.954
9733,153765.6,205.078,199.028,-15.9007
9745,153955.2,205.404,199.343,-15.9153
9757,154144.8,205.726,199.658,-15.9338
9769,154334.4,206.038,199.975,-15.9207
9781,154524,206.353,200.291,-15.9854
9793,154713.6,206.671,200.608,-16.0291
9805,154903.2,206.991,200.926,-16.1018
9817,155092.8,207.299,201.244,-16.1555
9829,155282.4,207.6071,201.56,-16.1447
9841,155472,207.924,201.877,-16.1681
9853,155661.6,208.246,202.193,-16.1948
9865,155851.2,208.568,202.509,-16.2408
9877,156040.8,208.877,202.827,-16.2611
9889,156230.4,209.177,203.142,-16.24211
9901,156420,209.49,203.457,-16.2684
9913,156609.6,209.815,203.771,-16.255
9925,156799.2,210.139,204.085,-16.2662
9937,156988.8,210.463,204.402,-16.3042
9949,157178.4,210.772,204.718,-16.3292
9961,157368,211.075,205.033,-16.3009
9973,157557.6,211.3898,205.347,-16.3162
9985,157747.2,211.715,205.66,-16.3434
9997,157936.8,212.038,205.975,-16.361
10009,158126.4,212.361,206.29,-16.3702
10021,158316,212.668,206.606,-16.426
10033,158505.6,212.975,206.921,-16.455
10045,158695.2,213.293,207.235,-16.4421
10057,158884.8,213.617,207.549,-16.4819
10069,159074.4,213.94,207.864,-16.5195
10081,159264,214.252,208.181,-16.5638
10093,159453.6,214.558,208.496,-16.5788
10105,159643.2,214.868,208.81,-16.605
10117,159832.8,215.19,209.124,-16.6027
10129,160022.4,215.513,209.439,-16.6262
10141,160212,215.835,209.755,-16.6121
10153,160401.6,216.144,210.07,-16.6625
10165,160591.2,216.451,210.385,-16.7245
10177,160780.8,216.766,210.7,-16.74225
10189,160970.4,217.09,211.014,-16.7334
10201,161160,217.411,211.33,-16.7821
10213,161349.6,217.732,211.646,-16.81731
10225,161539.2,218.04,211.962,-16.8576
10237,161728.8,218.349,212.277,-16.8664
10249,161918.4,218.666,212.591,-16.8836
10261,162108,218.989,212.906,-16.88233
10273,162297.6,219.311,213.223,-16.9387
10285,162487.2,219.628,213.539,-16.9746
10297,162676.8,219.934,213.855,-17.0112
10309,162866.4,220.244,214.17,-17.0257
10321,163056,220.562,214.485,-17.044
10333,163245.6,220.884,214.8,-17.0491
10345,163435.2,221.206,215.115,-17.0667
10357,163624.8,221.525,215.432,-17.1283
10369,163814.4,221.833,215.749,-17.1485
10381,164004,222.145,216.065,-17.1803
10393,164193.6,222.464,216.38,-17.2242
10405,164383.2,222.784,216.698,-17.2534
10417,164572.8,223.104,217.014,-17.30739
10429,164762.4,223.415,217.332,-17.3353
10441,164952,223.722,217.647,-17.29584
10453,165141.6,224.038,217.963,-17.3176
10465,165331.2,224.36,218.279,-17.3657
10477,165520.8,224.68,218.595,-17.38622
10489,165710.4,225.001,218.913,-17.4303
10501,165900,225.308,219.229,-17.4884
10513,166089.6,225.616,219.546,-17.4752
10525,166279.2,225.933,219.862,-17.4963
10537,166468.8,226.257,220.178,-17.4774
10549,166658.4,226.576,220.494,-17.511
10561,166848,226.894,220.811,-17.5779
10573,167037.6,227.205,221.128,-17.6207
10585,167227.2,227.517,221.444,-17.6084
10597,167416.8,227.836,221.76,-17.62079
10609,167606.4,228.158,222.076,-17.67074
10621,167796,228.478,222.393,-17.6864
10633,167985.6,228.793,222.711,-17.6937
10645,168175.2,229.099,223.029,-17.6645
10657,168364.8,229.409,223.345,-17.6526
10669,168554.4,229.73,223.661,-17.6804
10681,168744,230.052,223.978,-17.7574
10693,168933.6,230.372,224.295,-17.8568
10705,169123.2,230.687,224.612,-17.9136
10717,169312.8,230.991,224.929,-17.9323
10729,169502.4,231.304,225.245,-17.9716
10741,169692,231.626,225.562,-17.9876
10753,169881.6,231.946,225.879,-18.0082
10765,170071.2,232.269,226.195,-18.031
10777,170260.8,232.577,226.513,-18.0585
10789,170450.4,232.886,226.829,-18.0954
10801,170640,233.202,227.146,-18.1137
10813,170829.6,233.525,227.463,-18.1165
10825,171019.2,233.844,227.779,-18.1328
10837,171208.8,234.164,228.097,-18.1689
10849,171398.4,234.482,228.414,-18.2004
10861,171588,234.799,228.732,-18.2349
10873,171777.6,235.118,229.051,-18.2659
10885,171967.2,235.434,229.37,-18.3077
10897,172156.8,235.747,229.689,-18.3459
10909,172346.4,236.053,230.008,-18.39364
10921,172536,236.366,230.325,-18.4364
10933,172725.6,236.684,230.643,-18.4289
10945,172915.2,237.007,230.961,-18.4467
10957,173104.8,237.326,231.281,-18.5046
10969,173294.4,237.639,231.599,-18.5524
10981,173484,237.946,231.918,-18.5838
10993,173673.6,238.261,232.235,-18.5902
11005,173863.2,238.582,232.553,-18.5978
11017,174052.8,238.901,232.872,-18.6132
11029,174242.4,239.222,233.191,-18.6505
11041,174432,239.53,233.51,-18.6601
11053,174621.6,239.841,233.828,-18.6937
11065,174811.2,240.16,234.145,-18.694
11077,175000.8,240.482,234.463,-18.7082
11089,175190.4,240.801,234.781,-18.7536
11101,175380,241.117,235.1,-18.7858
11113,175569.6,241.421,235.419,-18.8236
11125,175759.2,241.734,235.736,-18.8566
11137,175948.8,242.055,236.053,-18.8458
11149,176138.4,242.377,236.369,-18.8379
11161,176328,242.697,236.688,-18.895
11173,176517.6,243.013,237.006,-18.937
11185,176707.2,243.321,237.326,-18.991
11197,176896.8,243.633,237.643,-19.0402
11209,177086.4,243.946,237.96,-19.0322
11221,177276,244.264,238.277,-19.0298
11233,177465.6,244.581,238.593,-19.0715
11245,177655.2,244.896,238.911,-19.1018
11257,177844.8,245.213,239.227,-19.1118
11269,178034.4,245.526,239.544,-19.116
11281,178224,245.842,239.86,-19.1439
11293,178413.6,246.164,240.175,-19.1648
11305,178603.2,246.483,240.493,-19.1635
11317,178792.8,246.799,240.81,-19.1668
11329,178982.4,247.113,241.125,-19.2017
11341,179172,247.433,241.442,-19.2309
11353,179361.6,247.754,241.76,-19.2774
11365,179551.2,248.072,242.078,-19.313
11377,179740.8,248.381,242.396,-19.3436
11389,179930.4,248.691,242.714,-19.3784
11401,180120,249.01,243.031,-19.3953
11413,180309.6,249.33,243.349,-19.4026
11425,180499.2,249.651,243.666,-19.4251
11437,180688.8,249.962,243.985,-19.4631
11449,180878.4,250.267,244.302,-19.498
11461,181068,250.583,244.619,-19.4984
11473,181257.6,250.903,244.935,-19.522
11485,181447.2,251.225,245.253,-19.5521
11497,181636.8,251.545,245.57,-19.5911
11509,181826.4,251.856,245.89,-19.6325
11521,182016,252.17,246.206,-19.6694
11533,182205.6,252.49,246.524,-19.7007
11545,182395.2,252.809,246.843,-19.7422
11557,182584.8,253.13,247.161,-19.7645
11569,182774.4,253.448,247.481,-19.8055
11581,182964,253.764,247.802,-19.8504
11593,183153.6,254.08,248.122,-19.8976
11605,183343.2,254.397,248.443,-19.9202
11617,183532.8,254.707,248.764,-19.9757
11629,183722.4,255.018,249.084,-20.0165
11641,183912,255.331,249.405,-20.0528
11653,184101.6,255.649,249.723,-20.06714
11665,184291.2,255.967,250.043,-20.0936
11677,184480.8,256.283,250.364,-20.10332
11689,184670.4,256.59,250.682,-20.1194
11701,184860,256.901,251.001,-20.1046
11713,185049.6,257.221,251.318,-20.10159
11725,185239.2,257.544,251.636,-20.0885
11737,185428.8,257.868,251.955,-20.0598
11749,185618.4,258.177,252.274,-20.1117
11761,185808,258.482,252.593,-20.1513
11773,185997.6,258.797,252.91,-20.1637
11785,186187.2,259.12,253.227,-20.1564
11797,186376.8,259.442,253.545,-20.1607
11809,186566.4,259.761,253.863,-20.1852
11821,186756,260.074,254.181,-20.2334
11833,186945.6,260.388,254.5,-20.27601
11845,187135.2,260.707,254.819,-20.31
11857,187324.8,261.026,255.137,-20.335
11869,187514.4,261.35,255.456,-20.3613
11881,187704,261.657,255.777,-20.4003
11893,187893.6,261.961,256.095,-20.4365
11905,188083.2,262.274,256.412,-20.4487
11917,188272.8,262.596,256.73,-20.4482
11929,188462.4,262.919,257.047,-20.4656
11941,188652,263.241,257.365,-20.5055
11953,188841.6,263.552,257.686,-20.5454
11965,189031.2,263.861,258.005,-20.5982
11977,189220.8,264.177,258.322,-20.6173
11989,189410.4,264.498,258.64,-20.6402
12001,189600,264.817,258.959,-20.6659
12013,189789.6,265.137,259.279,-20.7094
12025,189979.2,265.445,259.598,-20.762
12037,190168.8,265.757,259.916,-20.8038
12049,190358.4,266.076,260.235,-20.8259
12061,190548,266.399,260.554,-20.8547
12073,190737.6,266.719,260.873,-20.8926
12085,190927.2,267.028,261.192,-20.9332
12097,191116.8,267.335,261.512,-20.9746
12109,191306.4,267.651,261.83,-21.0021
12121,191496,267.971,262.149,-21.0018
12133,191685.6,268.292,262.467,-21.0301
12145,191875.2,268.617,262.787,-21.0729
12157,192064.8,268.93,263.108,-21.1333
12169,192254.4,269.241,263.428,-21.1857
12181,192444,269.549,263.747,-21.2264
12193,192633.6,269.861,264.066,-21.2439
12205,192823.2,270.18,264.384,-21.2477
12217,193012.8,270.502,264.703,-21.2683
12229,193202.4,270.823,265.022,-21.3035
12241,193392,271.139,265.342,-21.3508
12253,193581.6,271.456,265.662,-21.4019
12265,193771.2,271.775,265.982,-21.4637
12277,193960.8,272.093,266.305,-21.5287
12289,194150.4,272.399,266.625,-21.5799
12301,194340,272.711,266.944,-21.6111
12313,194529.6,273.03,267.265,-21.6336
12325,194719.2,273.352,267.585,-21.655
12337,194908.8,273.675,267.906,-21.7015
12349,195098.4,273.993,268.229,-21.7615
12361,195288,274.309,268.552,-21.8337
12373,195477.6,274.627,268.875,-21.8952
12385,195667.2,274.947,269.199,-21.9619
12397,195856.8,275.263,269.524,-22.0482
12409,196046.4,275.577,269.85,-22.1439
12421,196236,275.895,270.174,-22.2271
12433,196425.6,276.204,270.501,-22.3135
12445,196615.2,276.518,270.827,-22.3951
12457,196804.8,276.834,271.153,-22.4687
12469,196994.4,277.154,271.479,-22.53302
12481,197184,277.466,271.805,-22.62051
12493,197373.6,277.777,272.1311,-22.7117
12505,197563.2,278.091,272.456,-22.8267
12517,197752.8,278.41,272.781,-22.9779
12529,197942.4,278.728,273.106,-23.2724
12541,198132,279.042,273.431,-24.3246
12553,198321.6,279.343,273.756,-31.1996
12565,198511.2,279.649,274.077,-83.4816
12577,198700.8,279.967,274.394,-150.79
12589,198890.4,280.288,274.709,-207.933
12601,199080,280.613,275.022,-267.564
12613,199269.6,280.936,275.336,-326.455
12625,199459.2,281.249,275.648,-384.146
12637,199648.8,281.562,275.959,-441.735
12649,199838.4,281.879,276.268,-498.694
12661,200028,282.196,276.577,-553.733
12673,200217.6,282.51,276.885,-602.696
12685,200407.2,282.8147,277.191,-644.8
12697,200596.8,283.129,277.495,-683.81
12709,200786.4,283.445,277.8,-721.557
12721,200976,283.769,278.105,-754.484
12733,201165.6,284.081,278.409,-774.386
12745,201355.2,284.392,278.713,-783.983
12757,201544.8,284.712,279.016,-770.413
12769,201734.4,285.029,279.323,-730.174
12781,201924,285.356,279.632,-645.453
12793,202113.6,285.67,279.945,-562.385
12805,202303.2,285.984,280.262,-450.792
12817,202492.8,286.302,280.584,-284.082
12829,202682.4,286.622,280.91,-181.226
12841,202872,286.938,281.238,-122.617
12853,203061.6,287.25,281.566,-89.2156
12865,203251.2,287.567,281.896,-70.1499
12877,203440.8,287.889,282.2234,-59.2587
12889,203630.4,288.209,282.554,-53.0427
12901,203820,288.521,282.883,-49.501
12913,204009.6,288.834,283.212,-47.4652
12925,204199.2,289.142,283.539,-46.2735
12937,204388.8,289.458,283.865,-45.53
12949,204578.4,289.776,284.191,-45.0559
12961,204768,290.096,284.516,-44.7462
12973,204957.6,290.403,284.841,-44.52344
12985,205147.2,290.712,285.164,-44.3519
12997,205336.8,291.03,285.485,-44.1701
13009,205526.4,291.352,285.806,-44.0208
13021,205716,291.669,286.127,-43.886
13033,205905.6,291.98,286.448,-43.7926
13045,206095.2,292.298,286.768,-43.6905
13057,206284.8,292.618,287.0867,-43.5906
13069,206474.4,292.938,287.406,-43.5251
13081,206664,293.22,287.726,-43.4778
13093,206853.6,293.208,288.035,-43.3379
13105,207043.2,293.182,288.321,-42.694
13117,207232.8,293.17,288.585,-41.3429
13129,207422.4,293.17,288.829,-39.4733
13141,207612,293.168,289.057,-37.3026
13153,207801.6,293.163,289.269,-35.0332
13165,207991.2,293.164,289.465,-32.7531
13177,208180.8,293.169,289.646,-30.53941
13189,208370.4,293.174,289.817,-28.4539
13201,208560,293.17,289.977,-26.5177
13213,208749.6,293.167,290.124,-24.71189
13225,208939.2,293.163,290.261,-23.0038
13237,209128.8,293.16,290.388,-21.3992
13249,209318.4,293.159,290.506,-19.8916
13261,209508,293.157,290.615,-18.4743
13273,209697.6,293.156,290.717,-17.1508
13285,209887.2,293.152,290.811,-15.911
13297,210076.8,293.154,290.898,-14.748
13309,210266.4,293.154,290.978,-13.6675
13321,210456,293.154,291.053,-12.6693
13333,210645.6,293.155,291.123,-11.7515
13345,210835.2,293.152,291.187,-10.8934
13357,211024.8,293.154,291.246,-10.0961
13369,211214.4,293.148,291.301,-9.356295
13381,211404,293.136,291.351,-8.667813
13393,211593.6,293.138,291.395,-7.97478
13405,211783.2,293.143,291.437,-7.298253
13417,211972.8,293.151,291.475,-6.689202
13429,212162.4,293.152,291.512,-6.154682
13441,212352,293.147,291.545,-5.687606
13453,212541.6,293.148,291.575,-5.24391
13465,212731.2,293.148,291.604,-4.840679
13477,212920.8,293.154,291.63,-4.461492
13489,213110.4,293.146,291.655,-4.143148
13501,213300,293.142,291.676,-3.831747
13513,213489.6,293.146,291.697,-3.499977
13525,213679.2,293.151,291.715,-3.2071
13537,213868.8,293.156,291.733,-2.949127
13549,214058.4,293.149,291.75,-2.751801
13561,214248,293.15,291.764,-2.555179
13573,214437.6,293.151,291.778,-2.370485
13585,214627.2,293.158,291.793,-2.193393
13597,214816.8,293.155,291.807,-2.063812
13609,215006.4,293.152,291.819,-1.94702
13621,215196,293.155,291.83,-1.81486
13633,215385.6,293.158,291.842,-1.709473
13645,215575.2,293.157,291.852,-1.618774
13657,215764.8,293.153,291.862,-1.542414
13669,215954.4,293.154,291.871,-1.448438
13681,216144,293.16,291.8804,-1.3669
13693,216333.6,293.163,291.89,-1.303499
13705,216523.2,293.156,291.899,-1.273779
13717,216712.8,293.151,291.907,-1.232835
13729,216902.4,293.151,291.914,-1.174277
13741,217092,293.156,291.921,-1.099483
13753,217281.6,293.146,291.927,-1.026074
13765,217471.2,293.136,291.931,-0.939542
13777,217660.8,293.137,291.934,-0.798263
13789,217850.4,293.143,291.937,-0.654912
13801,218040,293.148,291.939,-0.533151
13813,218229.6,293.15,291.942,-0.452322
13825,218419.2,293.15,291.945,-0.403963
13837,218608.8,293.134,291.948,-0.388763
13849,218798.4,293.125,291.946,-0.310528
13861,218988,293.131,291.944,-0.146801
13873,219177.6,293.139,291.941,0.001209
13885,219367.2,293.147,291.94,0.118133
13897,219556.8,293.145,291.939,0.17219
13909,219746.4,293.147,291.937,0.20017
13921,219936,293.151,291.937,0.200515
13933,220125.6,293.156,291.937,0.177545
13945,220315.2,293.151,291.937,0.127459
13957,220504.8,293.144,291.937,0.091708
13969,220694.4,293.148,291.936,0.099826
13981,220884,293.152,291.935,0.118824
13993,221073.6,293.155,291.935,0.130223
14005,221263.2,293.149,291.936,0.097062
14017,221452.8,293.148,291.934,0.08031
14029,221642.4,293.153,291.934,0.085146
14041,221832,293.159,291.936,0.073229
14053,222021.6,293.159,291.936,0.035578
14065,222211.2,293.158,291.939,-0.009499
14077,222400.8,293.159,291.94,-0.058894
14089,222590.4,293.16,291.942,-0.100343
14101,222780,293.15,291.945,-0.155091
14113,222969.6,293.145,291.945,-0.171326
14125,223159.2,293.147,291.946,-0.138684
14137,223348.8,293.152,291.946,-0.105351
14149,223538.4,293.155,291.948,-0.079272
14161,223728,293.158,291.95,-0.075473
14173,223917.6,293.151,291.952,-0.110705
14185,224107.2,293.133,291.952,-0.142655
14197,224296.8,293.127,291.95,-0.086008
14209,224486.4,293.134,291.946,0.040241
14221,224676,293.143,291.944,0.164936
14233,224865.6,293.151,291.942,0.241791
14245,225055.2,293.147,291.941,0.247663
14257,225244.8,293.141,291.94,0.241964
14269,225434.4,293.143,291.937,0.269426
14281,225624,293.151,291.934,0.305005
14293,225813.6,293.157,291.934,0.314159
14305,226003.2,293.151,291.933,0.271154
14317,226192.8,293.137,291.931,0.217442
14329,226382.4,293.133,291.928,0.229878
14341,226572,293.139,291.925,0.302763
14353,226761.6,293.148,291.921,0.370639
14365,226951.2,293.157,291.92,0.396029
14377,227140.8,293.147,291.919,0.347324
14389,227330.4,293.139,291.917,0.312092
14401,227520,293.142,291.914,0.335927
14413,227709.6,293.148,291.91,0.375825
14425,227899.2,293.153,291.908,0.400697
14437,228088.8,293.144,291.907,0.369436
14449,228278.4,293.141,291.904,0.361838
14461,228468,293.145,291.901,0.381701
14473,228657.6,293.153,291.898,0.391893
14485,228847.2,293.161,291.898,0.37963
14497,229036.8,293.164,291.899,0.313479
14509,229226.4,293.166,291.9,0.217622
14521,229416,293.168,291.902,0.11192
14533,229605.6,293.169,291.905,-0.001209
14545,229795.2,293.16,291.909,-0.129536
14557,229984.8,293.153,291.911,-0.218137
14569,230174.4,293.154,291.914,-0.253543
14581,230364,293.159,291.916,-0.249052
14593,230553.6,293.153,291.919,-0.260277
14605,230743.2,293.146,291.92,-0.262177
14617,230932.8,293.148,291.921,-0.226252
14629,231122.4,293.153,291.923,-0.18342
14641,231312,293.16,291.924,-0.158031
14653,231501.6,293.16,291.927,-0.175129
14665,231691.2,293.157,291.93,-0.210879
14677,231880.8,293.155,291.933,-0.248184
14689,232070.4,293.157,291.935,-0.259927
14701,232260,293.145,291.9373,-0.289115
14713,232449.6,293.138,291.938,-0.268907
14725,232639.2,293.142,291.938,-0.183762
14737,232828.8,293.149,291.938,-0.107079
14749,233018.4,293.151,291.938,-0.060793
14761,233208,293.148,291.94,-0.048358
14773,233397.6,293.149,291.94,-0.031087
14785,233587.2,293.152,291.94,-0.016925
14797,233776.8,293.156,291.941,-0.007599
14809,233966.4,293.147,291.942,-0.037305
14821,234156,293.143,291.942,-0.027979
14833,234345.6,293.148,291.941,0.019861
14845,234535.2,293.154,291.941,0.047495
14857,234724.8,293.154,291.942,0.050776
14869,234914.4,293.147,291.942,0.022625
14881,235104,293.147,291.941,0.027115
14893,235293.6,293.151,291.942,0.037996
14905,235483.2,293.156,291.942,0.053194
14917,235672.8,293.151,291.942,0.028324
14929,235862.4,293.147,291.942,0.012262
14941,236052,293.152,291.942,0.02936
14953,236241.6,293.157,291.943,0.027806
14965,236431.2,293.154,291.944,-0.000691
14975,236589.2,293.146,291.944,-0.028497