File: z_unorganized_archive/i_data_processed/old_wt%/0wt%_climb_proc.txt
 Index  Time(s)  Furnace Temperature(K)  Sample Temperature(K)  HeatFlow(mW)  Q_Corrected  Fc
  6001 101400.0              102.133              99.8333     -2.390259    -1.906270 NaN
  6014 101619.7              102.494             100.003     -2.627485    -2.127011 NaN
  6027 101839.4              102.856             100.186     -2.830109    -2.336638 NaN
  6040 102059.1              103.222             100.38     -3.001975    -2.512729 NaN
  6053 102278.8              103.591             100.585     -3.169648    -2.667618 NaN
  6066 102498.5              103.962             100.803     -3.314337    -2.828594 NaN
  6079 102718.2              104.325             101.028     -3.457942    -2.965600 NaN
  6092 102937.9              104.687             101.264     -3.601719    -3.108037 NaN
  6105 103157.6              105.055             101.508     -3.717458    -3.227698 NaN
  6118 103377.3              105.428             101.76     -3.840416    -3.353339 NaN
  6131 103597.0              105.797             102.019     -3.940828    -3.445910 NaN
  6144 103816.7              106.162             102.286     -4.046811    -3.547138 NaN
  6157 104036.4              106.53             102.559     -4.144254    -3.649124 NaN
  6170 104256.1              106.892             102.839     -4.237761    -3.739737 NaN
  6183 104475.8              107.255             103.123     -4.308727    -3.818348 NaN
  6196 104695.5              107.623             103.412     -4.400137    -3.911201 NaN
  6209 104915.2              107.993             103.706     -4.460947    -3.969735 NaN
  6222 105134.9              108.358             104.005     -4.539218    -4.045418 NaN
  6235 105354.6              108.72             104.307     -4.595248    -4.104753 NaN
  6248 105574.3              109.085             104.613     -4.647628    -4.151750 NaN
  6261 105794.0              109.459             104.923     -4.708706    -4.219235 NaN
  6274 106013.7              109.836             105.236     -4.767741    -4.270400 NaN
  6287 106233.4              110.204             105.555     -4.827620    -4.334205 NaN
  6300 106453.1              110.564             105.875     -4.873337    -4.308730 NaN
  6313 106672.8              110.926             106.198     -4.925767    -4.260596 NaN
  6326 106892.5              111.294             106.524     -4.973087    -4.214087 NaN
  6339 107112.2              111.662             106.852     -5.012771    -4.208581 NaN
  6352 107331.9              112.019             107.182     -5.046173    -4.198224 NaN
  6365 107551.6              112.376             107.512     -5.074654    -4.186519 NaN
  6378 107771.3              112.743             107.844     -5.100457    -4.183766 NaN
  6391 107991.0              113.116             108.178     -5.121918    -4.175282 NaN
  6404 108210.7              113.49             108.515     -5.160501    -4.177591 NaN
  6417 108430.4              113.863             108.853     -5.205149    -4.192943 NaN
  6430 108650.1              114.23             109.194     -5.226016    -4.183139 NaN
  6443 108869.8              114.588             109.535     -5.261770    -4.197318 NaN
  6456 109089.5              114.946             109.877     -5.289244    -4.204593 NaN
  6469 109309.2              115.31             110.22     -5.308491    -4.192738 NaN
  6482 109528.9              115.682             110.562     -5.324586    -4.189549 NaN
  6495 109748.6              116.056             110.907     -5.350105    -4.194070 NaN
  6508 109968.3              116.43             111.255     -5.383731    -4.212633 NaN
  6521 110188.0              116.802             111.604     -5.422999    -4.222047 NaN
  6534 110407.7              117.166             111.954     -5.444863    -4.236103 NaN
  6547 110627.4              117.521             112.305     -5.466627    -4.246493 NaN
  6560 110847.1              117.877             112.655     -5.487152    -4.243631 NaN
  6573 111066.8              118.244             113.005     -5.498119    -4.244041 NaN
  6586 111286.5              118.617             113.356     -5.515109    -4.256299 NaN
  6599 111506.2              118.988             113.709     -5.531994    -4.256166 NaN
  6612 111725.9              119.351             114.061     -5.555462    -4.282843 NaN
  6625 111945.6              119.714             114.415     -5.579688    -4.282732 NaN
  6638 112165.3              120.082             114.768     -5.591517    -4.296378 NaN
  6651 112385.0              120.45             115.123     -5.611959    -4.301646 NaN
  6664 112604.7              120.814             115.478     -5.630518    -4.320617 NaN
  6677 112824.4              121.184             115.833     -5.647799    -4.327034 NaN
  6690 113044.1              121.56             116.19     -5.661118    -4.332231 NaN
  6703 113263.8              121.926             116.547     -5.692181    -4.370624 NaN
  6716 113483.5              122.283             116.905     -5.697322    -4.363589 NaN
  6729 113703.2              122.644             117.262     -5.704841    -4.371672 NaN
  6742 113922.9              123.009             117.62     -5.713534    -4.374173 NaN
  6755 114142.6              123.375             117.978     -5.724551    -4.374644 NaN
  6768 114362.3              123.743             118.335     -5.724110    -4.381275 NaN
  6781 114582.0              124.112             118.693     -5.737441    -4.388529 NaN
  6794 114801.7              124.477             119.052     -5.753051    -4.394004 NaN
  6807 115021.4              124.842             119.41     -5.760449    -4.408175 NaN
  6820 115241.1              125.213             119.769     -5.762897    -4.422021 NaN
  6833 115460.8              125.585             120.128     -5.787090    -4.438177 NaN
  6846 115680.5              125.948             120.489     -5.799278    -4.446133 NaN
  6859 115900.2              126.304             120.85     -5.809127    -4.459565 NaN
  6872 116119.9              126.664             121.208     -5.813553    -4.460367 NaN
  6885 116339.6              127.032             121.567     -5.810545    -4.455189 NaN
  6898 116559.3              127.406             121.926     -5.807542    -4.450613 NaN
  6911 116779.0              127.779             122.285     -5.827733    -4.466381 NaN
  6924 116998.7              128.149             122.645     -5.840967    -4.488040 NaN
  6937 117218.4              128.51             123.006     -5.849035    -4.499666 NaN
  6950 117438.1              128.872             123.367     -5.857648    -4.501601 NaN
  6963 117657.8              129.236             123.727     -5.859468    -4.515193 NaN
  6976 117877.5              129.598             124.088     -5.874022    -4.522244 NaN
  6989 118097.2              129.965             124.448     -5.873330    -4.525360 NaN
  7002 118316.9              130.336             124.809     -5.876575    -4.535761 NaN
  7015 118536.6              130.709             125.169     -5.895019    -4.555718 NaN
  7028 118756.3              131.078             125.531     -5.905219    -4.569104 NaN
  7041 118976.0              131.441             125.893     -5.913152    -4.567633 NaN
  7054 119195.7              131.801             126.255     -5.930010    -4.591023 NaN
  7067 119415.4              132.166             126.617     -5.933754    -4.595699 NaN
  7080 119635.1              132.538             126.978     -5.943060    -4.616476 NaN
  7093 119854.8              132.909             127.341     -5.946497    -4.624399 NaN
  7106 120074.5              133.274             127.704     -5.964858    -4.637282 NaN
  7119 120294.2              133.637             128.067     -5.967985    -4.647640 NaN
  7132 120513.9              134.004             128.43     -5.979947    -4.652494 NaN
  7145 120733.6              134.371             128.793     -5.985840    -4.664214 NaN
  7158 120953.3              134.732             129.156     -5.999668    -4.698086 NaN
  7171 121173.0              135.091             129.519     -6.008574    -4.700695 NaN
  7184 121392.7              135.459             129.881     -6.005999    -4.700039 NaN
  7197 121612.4              135.831             130.244     -6.011619    -4.700762 NaN
  7210 121832.1              136.202             130.607     -6.017777    -4.715912 NaN
  7223 122051.8              136.569             130.971     -6.030964    -4.726922 NaN
  7236 122271.5              136.926             131.334     -6.043343    -4.750662 NaN
  7249 122491.2              137.283             131.695     -6.038711    -4.736269 NaN
  7262 122710.9              137.648             132.056     -6.042503    -4.747587 NaN
  7275 122930.6              138.021             132.418     -6.042790    -4.764776 NaN
  7288 123150.3              138.394             132.78     -6.048177    -4.766593 NaN
  7301 123370.0              138.763             133.142     -6.062418    -4.775665 NaN
  7314 123589.7              139.127             133.505     -6.075534    -4.794866 NaN
  7327 123809.4              139.486             133.867     -6.086507    -4.815360 NaN
  7340 124029.1              139.851             134.229     -6.080703    -4.805980 NaN
  7353 124248.8              140.217             134.59     -6.089850    -4.817139 NaN
  7366 124468.5              140.581             134.951     -6.092345    -4.827740 NaN
  7379 124688.2              140.946             135.312     -6.091937    -4.820841 NaN
  7392 124907.9              141.316             135.674     -6.099212    -4.840934 NaN
  7405 125127.6              141.691             136.035     -6.103065    -4.849108 NaN
  7418 125347.3              142.064             136.398     -6.120308    -4.856441 NaN
  7431 125567.0              142.432             136.761     -6.129347    -4.870048 NaN
  7444 125786.7              142.792             137.123     -6.150195    -4.895715 NaN
  7457 126006.4              143.155             137.486     -6.156048    -4.908713 NaN
  7470 126226.1              143.517             137.849     -6.170797    -4.927444 NaN
  7483 126445.8              143.883             138.212     -6.166485    -4.919791 NaN
  7496 126665.5              144.251             138.574     -6.183577    -4.943441 NaN
  7509 126885.2              144.615             138.938     -6.187049    -4.954217 NaN
  7522 127104.9              144.978             139.3     -6.194999    -4.962957 NaN
  7535 127324.6              145.348             139.663     -6.199560    -4.976566 NaN
  7548 127544.3              145.72             140.025     -6.212143    -4.988611 NaN
  7561 127764.0              146.094             140.389     -6.222342    -4.991829 NaN
  7574 127983.7              146.463             140.754     -6.242539    -5.009183 NaN
  7587 128203.4              146.825             141.12     -6.249281    -5.025667 NaN
  7600 128423.1              147.182             141.485     -6.271701    -5.050368 NaN
  7613 128642.8              147.54             141.849     -6.272073    -5.048659 NaN
  7626 128862.5              147.906             142.213     -6.280662    -5.063330 NaN
  7639 129082.2              148.279             142.576     -6.275222    -5.067006 NaN
  7652 129301.9              148.652             142.941     -6.284033    -5.074721 NaN
  7665 129521.6              149.021             143.306     -6.301213    -5.091577 NaN
  7678 129741.3              149.381             143.671     -6.316577    -5.106610 NaN
  7691 129961.0              149.743             144.036     -6.317746    -5.121108 NaN
  7704 130180.7              150.11             144.401     -6.331083    -5.136358 NaN
  7717 130400.4              150.482             144.766     -6.337288    -5.142960 NaN
  7730 130620.1              150.852             145.133     -6.352786    -5.154317 NaN
  7743 130839.8              151.215             145.499     -6.366740    -5.177706 NaN
  7756 131059.5              151.574             145.865     -6.372924    -5.188515 NaN
  7769 131279.2              151.936             146.23     -6.371861    -5.193056 NaN
  7782 131498.9              152.306             146.596     -6.369821    -5.192591 NaN
  7795 131718.6              152.676             146.961     -6.383028    -5.205621 NaN
  7808 131938.3              153.043             147.327     -6.392227    -5.219868 NaN
  7821 132158.0              153.401             147.693     -6.396902    -5.231561 NaN
  7834 132377.7              153.761             148.058     -6.406367    -5.246032 NaN
  7847 132597.4              154.125             148.422     -6.405429    -5.246866 NaN
  7860 132817.1              154.498             148.786     -6.401805    -5.245496 NaN
  7873 133036.8              154.873             149.151     -6.406353    -5.253276 NaN
  7886 133256.5              155.245             149.516     -6.406922    -5.258791 NaN
  7899 133476.2              155.609             149.881     -6.430175    -5.279093 NaN
  7912 133695.9              155.966             150.247     -6.438360    -5.302751 NaN
  7925 133915.6              156.33             150.612     -6.438484    -5.323928 NaN
  7938 134135.3              156.702             150.977     -6.436161    -5.323005 NaN
  7951 134355.0              157.074             151.343     -6.439733    -5.335044 NaN
  7964 134574.7              157.437             151.709     -6.459647    -5.349980 NaN
  7977 134794.4              157.796             152.075     -6.453208    -5.338581 NaN
  7990 135014.1              158.162             152.44     -6.459004    -5.364706 NaN
  8003 135233.8              158.534             152.805     -6.469665    -5.377428 NaN
  8016 135453.5              158.905             153.171     -6.468401    -5.369733 NaN
  8029 135673.2              159.268             153.537     -6.490863    -5.386022 NaN
  8042 135892.9              159.631             153.903     -6.491579    -5.398212 NaN
  8055 136112.6              159.996             154.269     -6.480226    -5.390814 NaN
  8068 136332.3              160.352             154.634     -6.498079    -5.412362 NaN
  8081 136552.0              160.712             154.998     -6.498157    -5.427899 NaN
  8094 136771.7              161.082             155.361     -6.496369    -5.431192 NaN
  8107 136991.4              161.457             155.725     -6.483319    -5.427999 NaN
  8120 137211.1              161.833             156.09     -6.493530    -5.448990 NaN
  8133 137430.8              162.206             156.455     -6.494154    -5.431229 NaN
  8146 137650.5              162.565             156.821     -6.521462    -5.458329 NaN
  8159 137870.2              162.918             157.186     -6.508032    -5.435411 NaN
  8172 138089.9              163.284             157.55     -6.500178    -5.447079 NaN
  8185 138309.6              163.656             157.914     -6.541236    -5.509250 NaN
  8198 138529.3              164.029             158.28     -6.537146    -5.512228 NaN
  8211 138749.0              164.392             158.645     -6.554847    -5.523259 NaN
  8224 138968.7              164.755             159.01     -6.543257    -5.507140 NaN
  8237 139188.4              165.124             159.375     -6.551749    -5.559446 NaN
  8250 139408.1              165.496             159.741     -6.567040    -5.562620 NaN
  8263 139627.8              165.863             160.107     -6.579022    -5.581791 NaN
  8276 139847.5              166.225             160.474     -6.577345    -5.609570 NaN
  8289 140067.2              166.588             160.84     -6.579469    -5.585997 NaN
  8302 140286.9              166.953             161.207     -6.571764    -5.619342 NaN
  8315 140506.6              167.323             161.573     -6.601739    -5.643755 NaN
  8328 140726.3              167.695             161.939     -6.606913    -5.648748 NaN
  8341 140946.0              168.059             162.307     -6.617635    -5.690030 NaN
  8354 141165.7              168.421             162.674     -6.646755    -5.743106 NaN
  8367 141385.4              168.787             163.041     -6.652337    -5.717538 NaN
  8380 141605.1              169.156             163.409     -6.653278    -5.715473 NaN
  8393 141824.8              169.519             163.777     -6.662345    -5.715982 NaN
  8406 142044.5              169.881             164.143     -6.658250    -5.759519 NaN
  8419 142264.2              170.248             164.51     -6.662492    -5.738777 NaN
  8432 142483.9              170.62             164.877     -6.667209    -5.745776 NaN
  8445 142703.6              170.986             165.244     -6.619010    -5.689037 NaN
  8458 142923.3              171.348             165.611     -6.655982    -5.766889 NaN
  8471 143143.0              171.713             165.979     -6.648809    -5.782808 NaN
  8484 143362.7              172.083             166.346     -6.664589    -5.800303 NaN
  8497 143582.4              172.455             166.714     -6.675774    -5.834930 NaN
  8510 143802.1              172.82             167.082     -6.715040    -5.898486 NaN
  8523 144021.8              173.182             167.45     -6.729785    -5.939956 NaN
  8536 144241.5              173.544             167.818     -6.738366    -5.943743 NaN
  8549 144461.2              173.908             168.184     -6.709911    -5.925972 NaN
  8562 144680.9              174.273             168.551     -6.732202    -5.959824 NaN
  8575 144900.6              174.638             168.919     -6.705212    -5.948669 NaN
  8588 145120.3              175.008             169.285     -6.708486    -5.930586 NaN
  8601 145340.0              175.38             169.652     -6.689330    -5.901664 NaN
  8614 145559.7              175.75             170.02     -6.708438    -5.990774 NaN
  8627 145779.4              176.111             170.387     -6.708773    -5.960982 NaN
  8640 145999.1              176.466             170.755     -6.743621    -6.029309 NaN
  8653 146218.8              176.83             171.12     -6.762687    -6.012474 NaN
  8666 146438.5              177.203             171.485     -6.775440    -6.096576 NaN
  8679 146658.2              177.579             171.851     -6.748442    -6.092944 NaN
  8692 146877.9              177.943             172.218     -6.693061    -6.070720 NaN
  8705 147097.6              178.298             172.585     -6.729145    -6.092220 NaN
  8718 147317.3              178.662             172.95     -6.682064    -6.024559 NaN
  8731 147537.0              179.035             173.315     -6.747834    -6.106840 NaN
  8744 147756.7              179.411             173.681     -6.738986    -6.146090 NaN
  8757 147976.4              179.774             174.048     -6.809178    -6.207955 NaN
  8770 148196.1              180.129             174.413     -6.674520    -6.086324 NaN
  8783 148415.8              180.491             174.778     -6.707628    -6.092478 NaN
  8796 148635.5              180.865             175.142     -6.671969    -6.056530 1.0
  8809 148855.2              181.239             175.508     -6.754834    -6.115202 1.0
  8822 149074.9              181.611             175.875     -6.770470    -6.244190 1.0
  8835 149294.6              181.974             176.241     -6.741927    -6.209276 1.0
  8848 149514.3              182.339             176.609     -6.669129    -6.016590 1.0
  8861 149734.0              182.707             176.977     -6.717450    -6.134236 1.0
  8874 149953.7              183.077             177.344     -6.813184    -6.229413 1.0
  8887 150173.4              183.436             177.714     -6.886681    -6.427299 1.0
  8900 150393.1              183.796             178.081     -6.857160    -6.361530 1.0
  8913 150612.8              184.164             178.448     -6.895676    -6.323808 1.0
  8926 150832.5              184.535             178.816     -6.863174    -6.343444 1.0
  8939 151052.2              184.906             179.185     -6.844536    -6.284401 1.0
  8952 151271.9              185.266             179.554     -6.862197    -6.396377 1.0
  8965 151491.6              185.628             179.922     -6.823829    -6.341821 1.0
  8978 151711.3              185.998             180.29     -6.740532    -6.231928 1.0
  8991 151931.0              186.369             180.658     -6.840516    -6.357983 1.0
  9004 152150.7              186.739             181.028     -6.920036    -6.382100 1.0
  9017 152370.4              187.103             181.398     -6.802242    -6.243729 1.0
  9030 152590.1              187.462             181.767     -6.828595    -6.312138 1.0
  9043 152809.8              187.828             182.137     -6.810753    -6.389231 1.0
  9056 153029.5              188.196             182.506     -6.922218    -6.453264 1.0
  9069 153249.2              188.567             182.876     -6.854505    -6.438772 1.0
  9082 153468.9              188.936             183.247     -6.830497    -6.441346 1.0
  9095 153688.6              189.299             183.617     -6.902789    -6.470859 1.0
  9108 153908.3              189.663             183.988     -6.915592    -6.508048 1.0
  9121 154128.0              190.03             184.358     -6.874703    -6.499215 1.0
  9134 154347.7              190.398             184.729     -6.932354    -6.622937 1.0
  9147 154567.4              190.767             185.101     -6.980456    -6.677410 1.0
  9160 154787.1              191.132             185.473     -6.929602    -6.604890 1.0
  9173 155006.8              191.496             185.844     -6.930624    -6.550110 1.0
  9186 155226.5              191.859             186.216     -7.019801    -6.694799 1.0
  9199 155446.2              192.223             186.587     -6.993462    -6.597870 1.0
  9212 155665.9              192.585             186.958     -6.941674    -6.529734 1.0
  9225 155885.6              192.95             187.328     -6.983830    -6.551113 1.0
  9238 156105.3              193.317             187.698     -6.926699    -6.625109 1.0
  9251 156325.0              193.684             188.069     -6.852958    -6.535175 1.0
  9264 156544.7              194.051             188.439     -7.012952    -6.634515 1.0
  9277 156764.4              194.416             188.808     -6.976823    -6.644541 1.0
  9290 156984.1              194.781             189.178     -6.951974    -6.589636 1.0
  9303 157203.8              195.15             189.547     -7.029856    -6.712701 1.0
  9316 157423.5              195.52             189.916     -6.912477    -6.548652 1.0
  9329 157643.2              195.889             190.286     -6.946010    -6.687517 1.0
  9342 157862.9              196.254             190.655     -6.920563    -6.619227 1.0
  9355 158082.6              196.617             191.026     -6.817185    -6.520397 1.0
  9368 158302.3              196.985             191.396     -6.844049    -6.509598 1.0
  9381 158522.0              197.356             191.767     -7.015987    -6.785513 1.0
  9394 158741.7              197.727             192.138     -6.992711    -6.830786 1.0
  9407 158961.4              198.091             192.509     -6.914907    -6.854227 1.0
  9420 159181.1              198.453             192.88     -6.842509    -6.849615 1.0
  9433 159400.8              198.814             193.251     -6.819157    -6.732099 1.0
  9446 159620.5              199.174             193.62     -6.798822    -6.669111 1.0
  9459 159840.2              199.539             193.99     -6.752717    -6.710639 1.0
  9472 160059.9              199.907             194.36     -6.672402    -6.543187 1.0
  9485 160279.6              200.278             194.729     -6.751718    -6.591884 1.0
  9498 160499.3              200.649             195.099     -6.795578    -6.759037 1.0
  9511 160719.0              201.015             195.469     -6.747244    -6.765495 1.0
  9524 160938.7              201.379             195.839     -6.824607    -6.694921 1.0
  9537 161158.4              201.738             196.209     -6.947139    -6.856499 1.0
  9550 161378.1              202.101             196.577     -6.951629    -6.866668 1.0
  9563 161597.8              202.469             196.945     -6.834077    -6.644102 1.0
  9576 161817.5              202.836             197.314     -6.923486    -6.670389 1.0
  9589 162037.2              203.202             197.682     -7.055176    -6.886008 1.0
  9602 162256.9              203.572             198.051     -6.953171    -6.737666 1.0
  9615 162476.6              203.94             198.419     -6.939003    -6.785410 1.0
  9628 162696.3              204.305             198.787     -7.030047    -6.889557 1.0
  9641 162916.0              204.669             199.156     -6.765537    -6.593393 1.0
  9654 163135.7              205.036             199.523     -6.818295    -6.745738 1.0
  9667 163355.4              205.407             199.892     -6.973527    -6.940153 1.0
  9680 163575.1              205.778             200.26     -7.003682    -6.986910 1.0
  9693 163794.8              206.145             200.631     -7.077684    -7.135915 1.0
  9706 164014.5              206.507             201     -7.042983    -7.105644 1.0
  9719 164234.2              206.866             201.37     -7.053233    -7.153959 1.0
  9732 164453.9              207.229             201.739     -7.076118    -7.115226 1.0
  9745 164673.6              207.596             202.107     -6.859482    -6.852360 1.0
  9758 164893.3              207.967             202.476     -6.802868    -6.772987 1.0
  9771 165113.0              208.339             202.845     -6.729122    -6.664345 1.0
  9784 165332.7              208.706             203.213     -6.844831    -6.851322 1.0
  9797 165552.4              209.068             203.583     -6.929293    -7.179772 1.0
  9810 165772.1              209.427             203.952     -6.894577    -7.090952 1.0
  9823 165991.8              209.791             204.321     -6.927492    -7.091918 1.0
  9836 166211.5              210.159             204.689     -6.910481    -6.862799 1.0
  9849 166431.2              210.529             205.057     -6.940547    -6.993631 1.0
  9862 166650.9              210.9             205.425     -6.856426    -6.962691 1.0
  9875 166870.6              211.264             205.793     -6.943730    -6.901427 1.0
  9888 167090.3              211.627             206.163     -6.886361    -6.956595 1.0
  9901 167310.0              211.992             206.531     -6.983152    -7.038842 1.0
  9914 167529.7              212.362             206.899     -7.017294    -7.033563 1.0
  9927 167749.4              212.73             207.268     -6.945030    -6.898479 1.0
  9940 167969.1              213.095             207.637     -6.843263    -6.887564 1.0
  9953 168188.8              213.46             208.005     -6.943583    -7.035103 1.0
  9966 168408.5              213.827             208.374     -7.087152    -7.249009 1.0
  9979 168628.2              214.194             208.743     -7.143883    -7.286796 1.0
  9992 168847.9              214.559             209.112     -7.062155    -7.213119 1.0
 10005 169067.6              214.923             209.481     -7.044236    -7.260690 1.0
 10018 169287.3              215.288             209.849     -7.004856    -7.166295 1.0
 10031 169507.0              215.656             210.218     -7.069709    -7.191570 1.0
 10044 169726.7              216.024             210.587     -6.872838    -7.119910 1.0
 10057 169946.4              216.39             210.955     -6.917449    -7.016026 1.0
 10070 170166.1              216.756             211.325     -7.170085    -7.178424 1.0
 10083 170385.8              217.123             211.693     -7.294914    -7.407788 1.0
 10096 170605.5              217.489             212.062     -7.204876    -7.295052 1.0
 10109 170825.2              217.856             212.431     -7.071057    -7.230847 1.0
 10122 171044.9              218.22             212.8     -7.066892    -7.259174 1.0
 10135 171264.6              218.584             213.168     -6.897729    -6.992794 1.0
 10148 171484.3              218.95             213.538     -7.012046    -7.285921 1.0
 10161 171704.0              219.319             213.906     -6.981766    -7.194432 1.0
 10174 171923.7              219.685             214.275     -7.057204    -7.171127 1.0
 10187 172143.4              220.049             214.644     -7.146893    -7.383196 1.0
 10200 172363.1              220.415             215.012     -7.108560    -7.318483 1.0
 10213 172582.8              220.782             215.38     -7.078181    -7.205948 1.0
 10226 172802.5              221.15             215.748     -7.291010    -7.288653 1.0
 10239 173022.2              221.517             216.118     -7.298212    -7.421237 1.0
 10252 173241.9              221.881             216.486     -7.321109    -7.482056 1.0
 10265 173461.6              222.248             216.855     -7.235873    -7.489908 1.0
 10278 173681.3              222.615             217.224     -7.259992    -7.530044 1.0
 10291 173901.0              222.981             217.592     -7.336105    -7.561537 1.0
 10304 174120.7              223.346             217.961     -7.224937    -7.396255 1.0
 10317 174340.4              223.711             218.329     -6.992219    -7.277565 1.0
 10330 174560.1              224.079             218.698     -7.199059    -7.673116 1.0
 10343 174779.8              224.446             219.066     -7.030894    -7.322368 1.0
 10356 174999.5              224.811             219.435     -7.115714    -7.447622 1.0
 10369 175219.2              225.175             219.804     -7.154510    -7.457151 1.0
 10382 175438.9              225.541             220.172     -7.072575    -7.351636 1.0
 10395 175658.6              225.908             220.541     -7.217379    -7.653669 1.0
 10408 175878.3              226.275             220.909     -7.459947    -7.822727 1.0
 10421 176098.0              226.641             221.278     -7.510000    -7.782726 1.0
 10434 176317.7              227.006             221.646     -7.522231    -7.946758 1.0
 10447 176537.4              227.374             222.014     -7.453189    -7.767639 1.0
 10460 176757.1              227.741             222.382     -7.553078    -8.005312 1.0
 10473 176976.8              228.107             222.751     -7.465211    -7.828202 1.0
 10486 177196.5              228.471             223.12     -7.258804    -7.658938 1.0
 10499 177416.2              228.838             223.488     -6.989130    -7.316415 1.0
 10512 177635.9              229.205             223.856     -7.083161    -7.345427 1.0
 10525 177855.6              229.572             224.224     -7.105623    -7.473379 1.0
 10538 178075.3              229.937             224.593     -7.407206    -7.682508 1.0
 10551 178295.0              230.301             224.961     -7.485149    -7.896130 1.0
 10564 178514.7              230.668             225.329     -7.517455    -8.018949 1.0
 10577 178734.4              231.035             225.697     -7.427087    -7.977111 1.0
 10590 178954.1              231.402             226.065     -7.482431    -7.954730 1.0
 10603 179173.8              231.766             226.434     -7.262160    -7.566425 1.0
 10616 179393.5              232.133             226.802     -7.437245    -7.738584 1.0
 10629 179613.2              232.501             227.17     -7.308090    -7.665619 1.0
 10642 179832.9              232.868             227.538     -7.175331    -7.472939 1.0
 10655 180052.6              233.233             227.905     -7.401878    -7.663725 1.0
 10668 180272.3              233.598             228.274     -7.452875    -7.748293 1.0
 10681 180492.0              233.965             228.642     -7.287571    -7.789462 1.0
 10694 180711.7              234.333             229.01     -7.297260    -7.717586 1.0
 10707 180931.4              234.698             229.378     -7.439285    -7.897739 1.0
 10720 181151.1              235.063             229.747     -7.534114    -7.815288 1.0
 10733 181370.8              235.428             230.114     -7.447650    -7.629187 1.0
 10746 181590.5              235.795             230.483     -7.561349    -8.000879 1.0
 10759 181810.2              236.161             230.85     -7.546215    -8.066448 1.0
 10772 182029.9              236.527             231.219     -7.525986    -7.953080 1.0
 10785 182249.6              236.893             231.585     -7.656306    -8.196398 1.0
 10798 182469.3              237.261             231.954     -7.646275    -8.081616 1.0
 10811 182689.0              237.626             232.322     -7.615858    -7.989182 1.0
 10824 182908.7              237.992             232.69     -7.609136    -7.993143 1.0
 10837 183128.4              238.36             233.058     -7.645891    -8.070040 1.0
 10850 183348.1              238.727             233.426     -7.593124    -8.093035 1.0
 10863 183567.8              239.093             233.794     -7.495550    -8.094125 1.0
 10876 183787.5              239.46             234.162     -7.505037    -7.998168 1.0
 10889 184007.2              239.823             234.53     -7.706276    -8.125388 1.0
 10902 184226.9              240.188             234.898     -7.680231    -8.104491 1.0
 10915 184446.6              240.555             235.266     -7.689972    -8.071788 1.0
 10928 184666.3              240.923             235.634     -7.611006    -8.055690 1.0
 10941 184886.0              241.289             236.003     -7.590942    -8.097278 1.0
 10954 185105.7              241.653             236.371     -7.665349    -8.050641 1.0
 10967 185325.4              242.018             236.739     -7.787483    -8.161241 1.0
 10980 185545.1              242.383             237.107     -7.782023    -8.179872 1.0
 10993 185764.8              242.751             237.474     -7.551494    -8.003924 1.0
 11006 185984.5              243.116             237.841     -7.661722    -8.191859 1.0
 11019 186204.2              243.485             238.209     -7.622755    -8.322677 1.0
 11032 186423.9              243.853             238.577     -7.674101    -8.497412 1.0
 11045 186643.6              244.219             238.945     -7.722039    -8.305192 1.0
 11058 186863.3              244.581             239.313     -7.834880    -8.219267 1.0
 11071 187083.0              244.944             239.681     -7.912318    -8.208050 1.0
 11084 187302.7              245.309             240.047     -7.778008    -8.146947 1.0
 11097 187522.4              245.677             240.414     -7.808310    -8.158184 1.0
 11110 187742.1              246.045             240.78     -7.831539    -8.303789 1.0
 11123 187961.8              246.414             241.148     -7.788711    -8.178074 1.0
 11136 188181.5              246.78             241.515     -7.849852    -8.342629 1.0
 11149 188401.2              247.147             241.882     -7.841085    -8.286357 1.0
 11162 188620.9              247.515             242.25     -7.831799    -8.253942 1.0
 11175 188840.6              247.887             242.618     -7.822345    -8.117734 1.0
 11188 189060.3              248.256             242.987     -7.829761    -8.177019 1.0
 11201 189280.0              248.62             243.356     -7.924043    -8.332728 1.0
 11214 189499.7              248.983             243.725     -7.977314    -8.323915 1.0
 11227 189719.4              249.346             244.095     -7.916794    -8.247072 1.0
 11240 189939.1              249.705             244.462     -8.031035    -8.277006 1.0
 11253 190158.8              250.069             244.83     -7.788334    -8.055932 1.0
 11266 190378.5              250.435             245.198     -7.833881    -8.146701 1.0
 11279 190598.2              250.801             245.565     -7.969414    -8.316883 1.0
 11292 190817.9              251.17             245.931     -7.723431    -8.072144 1.0
 11305 191037.6              251.542             246.299     -7.808213    -8.238291 1.0
 11318 191257.3              251.911             246.667     -7.908181    -8.435715 1.0
 11331 191477.0              252.277             247.035     -7.882760    -8.351822 1.0
 11344 191696.7              252.641             247.403     -8.014566    -8.477991 1.0
 11357 191916.4              253.005             247.772     -7.934938    -8.395306 1.0
 11370 192136.1              253.37             248.14     -7.886467    -8.347638 1.0
 11383 192355.8              253.737             248.507     -7.959180    -8.352354 1.0
 11396 192575.5              254.101             248.875     -7.990917    -8.389522 1.0
 11409 192795.2              254.467             249.243     -8.056340    -8.348780 1.0
 11422 193014.9              254.834             249.61     -8.087280    -8.487756 1.0
 11435 193234.6              255.203             249.977     -8.111251    -8.492624 1.0
 11448 193454.3              255.572             250.345     -7.993086    -8.516320 1.0
 11461 193674.0              255.939             250.714     -7.989315    -8.493762 1.0
 11474 193893.7              256.303             251.082     -8.056434    -8.575724 1.0
 11487 194113.4              256.665             251.45     -8.109071    -8.536036 1.0
 11500 194333.1              257.03             251.818     -8.175900    -8.519230 1.0
 11513 194552.8              257.395             252.186     -8.168995    -8.463069 1.0
 11526 194772.5              257.761             252.553     -8.087785    -8.450914 1.0
 11539 194992.2              258.13             252.92     -7.928218    -8.347025 1.0
 11552 195211.9              258.497             253.287     -8.080230    -8.486042 1.0
 11565 195431.6              258.861             253.654     -8.074575    -8.490506 1.0
 11578 195651.3              259.227             254.021     -8.119288    -8.484437 1.0
 11591 195871.0              259.594             254.388     -8.128717    -8.466942 1.0
 11604 196090.7              259.965             254.755     -8.163928    -8.497410 1.0
 11617 196310.4              260.333             255.124     -8.196201    -8.614935 1.0
 11630 196530.1              260.7             255.491     -8.158649    -8.684473 1.0
 11643 196749.8              261.063             255.859     -8.180595    -8.732200 1.0
 11656 196969.5              261.427             256.227     -8.176636    -8.593898 1.0
 11669 197189.2              261.79             256.595     -8.135040    -8.492145 1.0
 11682 197408.9              262.156             256.962     -8.190663    -8.610507 1.0
 11695 197628.6              262.523             257.329     -8.239914    -8.697114 1.0
 11708 197848.3              262.893             257.696     -8.321823    -8.728527 1.0
 11721 198068.0              263.261             258.064     -8.310283    -8.708262 1.0
 11734 198287.7              263.628             258.433     -8.255447    -8.724300 1.0
 11747 198507.4              263.992             258.801     -8.241475    -8.635567 1.0
 11760 198727.1              264.356             259.168     -8.276199    -8.698004 1.0
 11773 198946.8              264.722             259.537     -8.364402    -8.843615 1.0
 11786 199166.5              265.088             259.904     -8.296961    -8.789403 1.0
 11799 199386.2              265.454             260.272     -8.316174    -8.809056 1.0
 11812 199605.9              265.821             260.638     -8.320102    -8.806049 1.0
 11825 199825.6              266.187             261.007     -8.374170    -8.922214 1.0
 11838 200045.3              266.553             261.375     -8.343216    -8.861130 1.0
 11851 200265.0              266.921             261.742     -8.354527    -8.941277 1.0
 11864 200484.7              267.288             262.11     -8.399390    -8.898603 1.0
 11877 200704.4              267.653             262.478     -8.426643    -8.855455 1.0
 11890 200924.1              268.018             262.845     -8.473959    -8.887656 1.0
 11903 201143.8              268.384             263.213     -8.445101    -8.895654 1.0
 11916 201363.5              268.749             263.58     -8.439037    -8.924079 1.0
 11929 201583.2              269.117             263.948     -8.458218    -9.040344 1.0
 11942 201802.9              269.483             264.316     -8.499746    -9.032012 1.0
 11955 202022.6              269.852             264.684     -8.534460    -9.009414 1.0
 11968 202242.3              270.219             265.052     -8.531271    -8.948798 1.0
 11981 202462.0              270.586             265.42     -8.580963    -9.042192 1.0
 11994 202681.7              270.95             265.788     -8.577604    -9.121573 1.0
 12007 202901.4              271.317             266.156     -8.603348    -9.188944 1.0
 12020 203121.1              271.683             266.524     -8.608746    -9.130386 1.0
 12033 203340.8              272.048             266.893     -8.647657    -9.118594 1.0
 12046 203560.5              272.413             267.26     -8.655917    -9.116989 1.0
 12059 203780.2              272.781             267.63     -8.691222    -9.139592 1.0
 12072 203999.9              273.146             267.999     -8.723844    -9.129995 1.0
 12085 204219.6              273.511             268.367     -8.716272    -9.151194 1.0
 12098 204439.3              273.879             268.734     -8.731481    -9.196211 1.0
 12111 204659.0              274.243             269.103     -8.765144    -9.207963 1.0
 12124 204878.7              274.607             269.471     -8.770400    -9.233408 1.0
 12137 205098.4              274.974             269.839     -8.768212    -9.254582 1.0
 12150 205318.1              275.343             270.206     -8.767465    -9.283914 1.0
 12163 205537.8              275.71             270.575     -8.773815    -9.283266 1.0
 12176 205757.5              276.075             270.943     -8.804629    -9.321972 1.0
 12189 205977.2              276.439             271.311     -8.843752    -9.374824 1.0
 12202 206196.9              276.806             271.678     -8.872065    -9.386941 1.0
 12215 206416.6              277.175             272.046     -8.886030    -9.376590 1.0
 12228 206636.3              277.54             272.414     -8.942249    -9.453430 1.0
 12241 206856.0              277.906             272.782     -9.006741    -9.528627 1.0
 12254 207075.7              278.273             273.15     -9.248888    -9.760271 NaN
 12267 207295.4              278.638             273.518    -10.5871   -11.0973 NaN
 12280 207515.1              279.002             273.885    -37.0382   -37.5321 NaN
 12293 207734.8              279.368             274.251    -83.5588   -84.0556 NaN
 12306 207954.5              279.735             274.616   -128.331  -128.866 NaN
 12319 208174.2              280.103             274.978   -174.383  -174.937 NaN
 12332 208393.9              280.47             275.34   -218.272  -218.788 NaN
 12345 208613.6              280.835             275.702   -260.065  -260.538 NaN
 12358 208833.3              281.201             276.061   -299.881  -300.357 NaN
 12371 209053.0              281.565             276.42   -332.976  -333.449 NaN
 12384 209272.7              281.926             276.779   -357.988  -358.443 NaN
 12397 209492.4              282.292             277.136   -381.442  -381.949 NaN
 12410 209712.1              282.662             277.494   -387.408  -387.913 NaN
 12423 209931.8              283.031             277.853   -373.902  -374.429 NaN
 12436 210151.5              283.398             278.214   -359.486  -359.98 NaN
 12449 210371.2              283.764             278.576   -330.621  -331.083 NaN
 12462 210590.9              284.127             278.94   -247.47  -247.939 NaN
 12475 210810.6              284.491             279.308   -123.218  -123.688 NaN
 12488 211030.3              284.858             279.679    -65.9624   -66.4311 NaN
 12501 211250.0              285.222             280.051    -39.78   -40.2701 NaN
 12514 211469.7              285.589             280.423    -27.8401   -28.3174 NaN
 12527 211689.4              285.961             280.795    -22.3999   -22.8872 NaN
 12540 211909.1              286.33             281.166    -19.9236   -20.4061 NaN
 12553 212128.8              286.698             281.538    -18.7873   -19.2778 NaN
 12566 212348.5              287.064             281.91    -18.2803   -18.7645 NaN
 12579 212568.2              287.43             282.281    -18.0499   -18.5361 NaN
 12592 212787.9              287.796             282.653    -17.9425   -18.4451 NaN
 12605 213007.6              288.16             283.025    -17.8882   -18.3846 NaN
 12618 213227.3              288.526             283.396    -17.8395   -18.3397 NaN
 12631 213447.0              288.89             283.766    -17.8224   -18.3242 NaN
 12644 213666.7              289.256             284.137    -17.8056   -18.3138 NaN
 12657 213886.4              289.621             284.507    -17.7797   -18.2891 NaN
 12670 214106.1              289.984             284.877    -17.7566   -18.2647 NaN
 12683 214325.8              290.35             285.245    -17.7321   -18.2717 NaN
 12696 214545.5              290.715             285.613    -17.7065   -18.2541 NaN
 12709 214765.2              291.074             285.98    -17.6635   -18.2082 NaN
 12722 214984.9              291.44             286.347    -17.6144   -18.1573 NaN
 12735 215204.6              291.81             286.711    -17.5559   -18.1021 NaN
 12748 215424.3              292.181             287.077    -17.5194   -18.0844 NaN
 12761 215644.0              292.547             287.443    -17.4899   -18.064 NaN
 12774 215863.7              292.915             287.809    -17.4597   -18.0282 NaN
 12787 216083.4              293.284             288.174    -17.4484   -18.0196 NaN
 12800 216303.1              293.649             288.541    -17.4404   -18.0341 NaN
 12813 216522.8              294.014             288.907    -17.4304   -18.0229 NaN
 12826 216742.5              294.382             289.272    -17.432   -18.0224 NaN
 12839 216962.2              294.751             289.638    -17.4137   -18.0283 NaN
 12852 217181.9              295.118             290.005    -17.4119   -18.023 NaN
 12865 217401.6              295.482             290.372    -17.4012   -18.0205 NaN
 12878 217621.3              295.846             290.738    -17.4126   -18.0559 NaN
 12891 217841.0              296.213             291.104    -17.3876   -18.0553 NaN
 12900 217993.1              296.467             291.357    -17.3673   -18.0449 NaN