File: z_unorganized_archive/i_data_processed/old_wt%/1.62wt%_climb_proc.txt
 Index  Time(s)  Furnace Temperature(K)  Sample Temperature(K)  HeatFlow(mW)  Q_Corrected       Fc
  6001 101400.0              106.087             106.285     -0.475387     0.008602      NaN
  6014 101619.7              106.088             106.282     -0.482116     0.018358      NaN
  6027 101839.4              106.091             106.28     -0.492360     0.001111      NaN
  6040 102059.1              106.096             106.279     -0.514761    -0.025515      NaN
  6053 102278.8              106.099             106.277     -0.504852    -0.002822      NaN
  6066 102498.5              106.105             106.276     -0.532690    -0.046947      NaN
  6079 102718.2              106.113             106.275     -0.534613    -0.042271      NaN
  6092 102937.9              106.12             106.275     -0.549009    -0.055327      NaN
  6105 103157.6              106.124             106.275     -0.557007    -0.067247      NaN
  6118 103377.3              106.119             106.276     -0.561164    -0.074087      NaN
  6131 103597.0              106.111             106.275     -0.562445    -0.067527      NaN
  6144 103816.7              106.088             106.274     -0.547733    -0.048060      NaN
  6157 104036.4              106.05             106.271     -0.521832    -0.026702      NaN
  6170 104256.1              106.336             106.27     -0.536872    -0.038848      NaN
  6183 104475.8              106.959             106.296     -0.820182    -0.329803      NaN
  6196 104695.5              107.521             106.356     -1.366225    -0.877289      NaN
  6209 104915.2              107.958             106.443     -2.009138    -1.517926      NaN
  6222 105134.9              108.332             106.551     -2.609571    -2.115771      NaN
  6235 105354.6              108.685             106.675     -3.099538    -2.609043      NaN
  6248 105574.3              109.041             106.812     -3.510151    -3.014273      NaN
  6261 105794.0              109.4             106.962     -3.864787    -3.375316      NaN
  6274 106013.7              109.755             107.122     -4.175355    -3.678014      NaN
  6287 106233.4              110.124             107.292     -4.453696    -3.960281      NaN
  6300 106453.1              110.506             107.474     -4.715721    -4.151114      NaN
  6313 106672.8              110.881             107.667     -4.985136    -4.319965      NaN
  6326 106892.5              111.254             107.869     -5.253058    -4.494058      NaN
  6339 107112.2              111.626             108.082     -5.519107    -4.714917      NaN
  6352 107331.9              111.991             108.306     -5.772843    -4.924894      NaN
  6365 107551.6              112.355             108.536     -6.000864    -5.112729      NaN
  6378 107771.3              112.738             108.776     -6.234912    -5.318221      NaN
  6391 107991.0              113.121             109.025     -6.442002    -5.495366      NaN
  6404 108210.7              113.498             109.282     -6.656701    -5.673791      NaN
  6417 108430.4              113.87             109.546     -6.880176    -5.867970      NaN
  6430 108650.1              114.241             109.82     -7.088952    -6.046075      NaN
  6443 108869.8              114.612             110.098     -7.269887    -6.205435      NaN
  6456 109089.5              114.972             110.383     -7.450678    -6.366027      NaN
  6469 109309.2              115.333             110.674     -7.617425    -6.501672      NaN
  6482 109528.9              115.701             110.969     -7.756667    -6.621630      NaN
  6495 109748.6              116.07             111.271     -7.893443    -6.737408      NaN
  6508 109968.3              116.44             111.577     -8.031830    -6.860732      NaN
  6521 110188.0              116.813             111.888     -8.171840    -6.970888      NaN
  6534 110407.7              117.185             112.204     -8.310005    -7.101245      NaN
  6547 110627.4              117.554             112.524     -8.450049    -7.229915      NaN
  6560 110847.1              117.92             112.85     -8.589805    -7.346284      NaN
  6573 111066.8              118.284             113.179     -8.737237    -7.483159      NaN
  6586 111286.5              118.649             113.512     -8.847047    -7.588237      NaN
  6599 111506.2              119.013             113.847     -8.960481    -7.684653      NaN
  6612 111725.9              119.374             114.187     -9.049009    -7.776390      NaN
  6625 111945.6              119.738             114.528     -9.139461    -7.842505      NaN
  6638 112165.3              120.1             114.872     -9.231170    -7.936031      NaN
  6651 112385.0              120.464             115.217     -9.314016    -8.003703      NaN
  6664 112604.7              120.828             115.564     -9.390358    -8.080457      NaN
  6677 112824.4              121.192             115.912     -9.449062    -8.128297      NaN
  6690 113044.1              121.557             116.261     -9.521420    -8.192533      NaN
  6703 113263.8              121.924             116.612     -9.592508    -8.270951      NaN
  6716 113483.5              122.291             116.962     -9.658240    -8.324507      NaN
  6729 113703.2              122.657             117.316     -9.723829    -8.390660      NaN
  6742 113922.9              123.02             117.67     -9.795580    -8.456219      NaN
  6755 114142.6              123.388             118.024     -9.877638    -8.527731      NaN
  6768 114362.3              123.752             118.379     -9.951632    -8.608797      NaN
  6781 114582.0              124.117             118.736    -10.0232    -8.674293      NaN
  6794 114801.7              124.48             119.092    -10.1074    -8.748332      NaN
  6807 115021.4              124.844             119.448    -10.1908    -8.838558      NaN
  6820 115241.1              125.21             119.806    -10.2672    -8.926363      NaN
  6833 115460.8              125.577             120.162    -10.3524    -9.003460      NaN
  6846 115680.5              125.948             120.521    -10.4353    -9.082138      NaN
  6859 115900.2              126.314             120.88    -10.5219    -9.172296      NaN
  6872 116119.9              126.674             121.239    -10.6017    -9.248531      NaN
  6885 116339.6              127.036             121.597    -10.6406    -9.285205      NaN
  6898 116559.3              127.404             121.956    -10.6386    -9.281635      NaN
  6911 116779.0              127.777             122.315    -10.6386    -9.277253      NaN
  6924 116998.7              128.147             122.675    -10.6055    -9.252597      NaN
  6937 117218.4              128.507             123.035    -10.5977    -9.248320      NaN
  6950 117438.1              128.868             123.394    -10.5953    -9.239294      NaN
  6963 117657.8              129.236             123.756    -10.5949    -9.250633      NaN
  6976 117877.5              129.607             124.116    -10.5952    -9.243452      NaN
  6989 118097.2              129.974             124.476    -10.615    -9.267004      NaN
  7002 118316.9              130.337             124.837    -10.6369    -9.296118      NaN
  7015 118536.6              130.706             125.198    -10.651    -9.311689      NaN
  7028 118756.3              131.079             125.56    -10.6652    -9.329110      NaN
  7041 118976.0              131.447             125.922    -10.7012    -9.355686      NaN
  7054 119195.7              131.81             126.284    -10.7349    -9.395889      NaN
  7067 119415.4              132.171             126.648    -10.7375    -9.399425      NaN
  7080 119635.1              132.529             127.01    -10.7624    -9.435806      NaN
  7093 119854.8              132.888             127.371    -10.7627    -9.440567      NaN
  7106 120074.5              133.254             127.732    -10.7491    -9.421570      NaN
  7119 120294.2              133.627             128.092    -10.7562    -9.435870      NaN
  7132 120513.9              134.005             128.453    -10.7757    -9.448233      NaN
  7145 120733.6              134.379             128.816    -10.8056    -9.484012      NaN
  7158 120953.3              134.738             129.179    -10.8446    -9.542969      NaN
  7171 121173.0              135.093             129.542    -10.8604    -9.552533      NaN
  7184 121392.7              135.454             129.904    -10.8561    -9.550123      NaN
  7197 121612.4              135.818             130.265    -10.8655    -9.554668      NaN
  7210 121832.1              136.187             130.626    -10.8679    -9.566049      NaN
  7223 122051.8              136.553             130.986    -10.8712    -9.567124      NaN
  7236 122271.5              136.92             131.347    -10.8872    -9.594484      NaN
  7249 122491.2              137.29             131.707    -10.907    -9.604519      NaN
  7262 122710.9              137.658             132.068    -10.9237    -9.628772      NaN
  7275 122930.6              138.023             132.428    -10.9369    -9.658927      NaN
  7288 123150.3              138.393             132.79    -10.9584    -9.676844      NaN
  7301 123370.0              138.766             133.152    -10.9906    -9.703812      NaN
  7314 123589.7              139.132             133.515    -11.0159    -9.735191      NaN
  7327 123809.4              139.491             133.877    -11.0414    -9.770301      NaN
  7340 124029.1              139.855             134.239    -11.0624    -9.787711      NaN
  7353 124248.8              140.224             134.601    -11.073    -9.800333      NaN
  7366 124468.5              140.596             134.963    -11.1041    -9.839449      NaN
  7379 124688.2              140.968             135.326    -11.1103    -9.839191      NaN
  7392 124907.9              141.33             135.691    -11.155    -9.896742      NaN
  7405 125127.6              141.691             136.055    -11.1733    -9.919377      NaN
  7418 125347.3              142.058             136.419    -11.1882    -9.924326      NaN
  7431 125567.0              142.426             136.783    -11.2175    -9.958170      NaN
  7444 125786.7              142.787             137.146    -11.2396    -9.985148      NaN
  7457 126006.4              143.15             137.509    -11.2419    -9.994560      NaN
  7470 126226.1              143.518             137.872    -11.257   -10.0136      NaN
  7483 126445.8              143.891             138.236    -11.2793   -10.0326      NaN
  7496 126665.5              144.255             138.6    -11.3141   -10.0739      NaN
  7509 126885.2              144.616             138.964    -11.3202   -10.0874      NaN
  7522 127104.9              144.981             139.328    -11.3318   -10.0998      NaN
  7535 127324.6              145.346             139.69    -11.352   -10.129      NaN
  7548 127544.3              145.709             140.054    -11.3708   -10.1473      NaN
  7561 127764.0              146.074             140.416    -11.367   -10.1365      NaN
  7574 127983.7              146.444             140.778    -11.373   -10.1397      NaN
  7587 128203.4              146.816             141.141    -11.4052   -10.1816      NaN
  7600 128423.1              147.185             141.506    -11.425   -10.2036      NaN
  7613 128642.8              147.551             141.869    -11.4452   -10.2218      NaN
  7626 128862.5              147.917             142.235    -11.4771   -10.2598      NaN
  7639 129082.2              148.282             142.598    -11.4909   -10.2827      NaN
  7652 129301.9              148.643             142.962    -11.5151   -10.3058      NaN
  7665 129521.6              149.007             143.326    -11.5319   -10.3223      NaN
  7678 129741.3              149.376             143.69    -11.5267   -10.3167      NaN
  7691 129961.0              149.747             144.055    -11.5426   -10.346      NaN
  7704 130180.7              150.12             144.42    -11.5536   -10.3589      NaN
  7717 130400.4              150.48             144.785    -11.5731   -10.3787      NaN
  7730 130620.1              150.84             145.15    -11.5679   -10.3694      NaN
  7743 130839.8              151.207             145.515    -11.5494   -10.3604      NaN
  7756 131059.5              151.579             145.88    -11.5326   -10.3482      NaN
  7769 131279.2              151.95             146.245    -11.5264   -10.3476      NaN
  7782 131498.9              152.311             146.611    -11.5069   -10.3297      NaN
  7795 131718.6              152.668             146.977    -11.4624   -10.285      NaN
  7808 131938.3              153.032             147.341    -11.4053   -10.2329      NaN
  7821 132158.0              153.402             147.706    -11.3215   -10.1561      NaN
  7834 132377.7              153.773             148.071    -11.2348   -10.0744      NaN
  7847 132597.4              154.143             148.437    -11.137    -9.978414      NaN
  7860 132817.1              154.504             148.802    -11.0223    -9.865959      NaN
  7873 133036.8              154.868             149.167    -10.8633    -9.710254      NaN
  7886 133256.5              155.232             149.533    -10.6796    -9.531479      NaN
  7899 133476.2              155.597             149.897    -10.4688    -9.317710      NaN
  7912 133695.9              155.968             150.261    -10.2074    -9.071833      NaN
  7925 133915.6              156.339             150.627     -9.898124    -8.783568      NaN
  7938 134135.3              156.709             150.993     -9.523351    -8.410195      NaN
  7951 134355.0              157.071             151.359     -9.110274    -8.005585      NaN
  7964 134574.7              157.432             151.726     -8.661302    -7.551635      NaN
  7977 134794.4              157.798             152.092     -8.143259    -7.028632      NaN
  7990 135014.1              158.169             152.457     -7.617273    -6.522975      NaN
  8003 135233.8              158.54             152.824     -7.061498    -5.969261      NaN
  8016 135453.5              158.905             153.191     -6.517494    -5.418826      NaN
  8029 135673.2              159.271             153.557     -6.029037    -4.924196      NaN
  8042 135892.9              159.635             153.925     -5.568962    -4.475595      NaN
  8055 136112.6              159.999             154.292     -5.183258    -4.093846      NaN
  8068 136332.3              160.362             154.659     -4.855384    -3.769667      NaN
  8081 136552.0              160.733             155.026     -4.640586    -3.570328      NaN
  8094 136771.7              161.104             155.394     -4.510943    -3.445766      NaN
  8107 136991.4              161.466             155.761     -4.541964    -3.486644      NaN
  8120 137211.1              161.826             156.128     -4.786218    -3.741678      NaN
  8133 137430.8              162.187             156.495     -5.261071    -4.198146      NaN
  8146 137650.5              162.552             156.861     -6.010451    -4.947318      NaN
  8159 137870.2              162.92             157.227     -6.978567    -5.905946      NaN
  8172 138089.9              163.292             157.593     -8.057465    -7.004366      NaN
  8185 138309.6              163.662             157.96     -9.110206    -8.078220      NaN
  8198 138529.3              164.03             158.326    -10.0171    -8.992147      NaN
  8211 138749.0              164.395             158.693    -10.6829    -9.651336      NaN
  8224 138968.7              164.756             159.06    -11.1636   -10.1274      NaN
  8237 139188.4              165.122             159.426    -11.4388   -10.4465      NaN
  8250 139408.1              165.487             159.792    -11.6235   -10.6191      NaN
  8263 139627.8              165.855             160.159    -11.7671   -10.7698      NaN
  8276 139847.5              166.228             160.526    -11.867   -10.8992      NaN
  8289 140067.2              166.598             160.893    -11.9432   -10.9497      NaN
  8302 140286.9              166.96             161.261    -12.0113   -11.0588      NaN
  8315 140506.6              167.322             161.628    -12.0182   -11.0603      NaN
  8328 140726.3              167.686             161.995    -12.0243   -11.0661      NaN
  8341 140946.0              168.048             162.362    -11.9766   -11.0489      NaN
  8354 141165.7              168.412             162.728    -12.0144   -11.1107      NaN
  8367 141385.4              168.782             163.094    -12.0278   -11.093      NaN
  8380 141605.1              169.153             163.461    -12.0432   -11.1054      NaN
  8393 141824.8              169.522             163.828    -12.1017   -11.1553      NaN
  8406 142044.5              169.886             164.194    -12.1085   -11.2098      NaN
  8419 142264.2              170.246             164.562    -12.1204   -11.1967      NaN
  8432 142483.9              170.613             164.928    -12.1448   -11.2233      NaN
  8445 142703.6              170.985             165.294    -12.017   -11.087      NaN
  8458 142923.3              171.355             165.661    -12.0937   -11.2046      NaN
  8471 143143.0              171.72             166.029    -12.2   -11.3339      NaN
  8484 143362.7              172.081             166.397    -12.2512   -11.3869      NaN
  8497 143582.4              172.447             166.763    -12.2488   -11.408      NaN
  8510 143802.1              172.816             167.13    -12.2141   -11.3975      NaN
  8523 144021.8              173.184             167.498    -12.3172   -11.5274      NaN
  8536 144241.5              173.547             167.866    -12.3165   -11.5218      NaN
  8549 144461.2              173.909             168.233    -12.3413   -11.5573      NaN
  8562 144680.9              174.276             168.6    -12.3558   -11.5834      NaN
  8575 144900.6              174.646             168.966    -12.4318   -11.6753      NaN
  8588 145120.3              175.012             169.334    -12.5604   -11.7825      NaN
  8601 145340.0              175.376             169.701    -12.6916   -11.904      NaN
  8614 145559.7              175.739             170.069    -13.1134   -12.3958      NaN
  8627 145779.4              176.104             170.435    -14.2757   -13.5279      NaN
  8640 145999.1              176.473             170.802    -18.2649   -17.5506      NaN
  8653 146218.8              176.844             171.168    -22.6884   -21.9382      NaN
  8666 146438.5              177.212             171.535    -26.1466   -25.4677      NaN
  8679 146658.2              177.574             171.903    -15.2448   -14.5893      NaN
  8692 146877.9              177.938             172.27     -4.141766    -3.519425      NaN
  8705 147097.6              178.306             172.638     -2.371774    -1.734849      NaN
  8718 147317.3              178.676             173.006     -4.675425    -4.017920      NaN
  8731 147537.0              179.044             173.374     -7.872472    -7.231478      NaN
  8744 147756.7              179.406             173.743    -10.2059    -9.613014      NaN
  8757 147976.4              179.769             174.11    -11.5438   -10.9426      NaN
  8770 148196.1              180.134             174.477    -12.2326   -11.6444      NaN
  8783 148415.8              180.505             174.844    -12.5969   -11.9817      NaN
  8796 148635.5              180.875             175.212    -12.861   -12.2455 0.950728
  8809 148855.2              181.242             175.58    -13.3815   -12.7419 0.950630
  8822 149074.9              181.606             175.949    -16.943   -16.4167 0.950532
  8835 149294.6              181.966             176.316    -40.4865   -39.9538 0.950433
  8848 149514.3              182.33             176.682    -32.1636   -31.5111 0.950335
  8861 149734.0              182.7             177.05    -52.2525   -51.6693 0.950236
  8874 149953.7              183.07             177.415    -51.2141   -50.6304 0.950137
  8887 150173.4              183.435             177.783    -28.2294   -27.77 0.950036
  8900 150393.1              183.799             178.151    -19.4869   -18.9913 0.949936
  8913 150612.8              184.164             178.519    -15.9952   -15.4234 0.949835
  8926 150832.5              184.533             178.887    -14.5324   -14.0126 0.949733
  8939 151052.2              184.899             179.256    -13.9616   -13.4015 0.949631
  8952 151271.9              185.262             179.625    -13.6421   -13.1762 0.949529
  8965 151491.6              185.627             179.993    -13.5574   -13.0754 0.949426
  8978 151711.3              185.996             180.36    -13.5816   -13.073 0.949323
  8991 151931.0              186.365             180.729    -13.6149   -13.1324 0.949219
  9004 152150.7              186.73             181.097    -13.676   -13.138 0.949115
  9017 152370.4              187.093             181.465    -13.5834   -13.0248 0.949010
  9030 152590.1              187.457             181.833    -13.5643   -13.0478 0.948905
  9043 152809.8              187.822             182.201    -13.4404   -13.0188 0.948800
  9056 153029.5              188.191             182.568    -13.5197   -13.0507 0.948694
  9069 153249.2              188.561             182.936    -13.6178   -13.2021 0.948587
  9082 153468.9              188.931             183.304    -13.7004   -13.3112 0.948480
  9095 153688.6              189.298             183.673    -13.6685   -13.2366 0.948372
  9108 153908.3              189.659             184.041    -13.7002   -13.2926 0.948264
  9121 154128.0              190.02             184.409    -13.6969   -13.3214 0.948156
  9134 154347.7              190.387             184.777    -13.6713   -13.3619 0.948046
  9147 154567.4              190.757             185.145    -13.741   -13.438 0.947936
  9160 154787.1              191.128             185.513    -13.7632   -13.4385 0.947826
  9173 155006.8              191.495             185.883    -13.7666   -13.386 0.947715
  9186 155226.5              191.855             186.251    -13.8472   -13.5222 0.947603
  9199 155446.2              192.217             186.619    -13.8672   -13.4716 0.947491
  9212 155665.9              192.585             186.987    -13.9108   -13.4989 0.947378
  9225 155885.6              192.957             187.354    -13.9318   -13.4991 0.947265
  9238 156105.3              193.325             187.724    -13.9137   -13.6121 0.947151
  9251 156325.0              193.687             188.093    -13.9942   -13.6765 0.947036
  9264 156544.7              194.052             188.461    -14.0421   -13.6636 0.946921
  9277 156764.4              194.416             188.829    -14.0482   -13.7159 0.946805
  9290 156984.1              194.778             189.198    -13.9684   -13.6061 0.946688
  9303 157203.8              195.145             189.565    -13.9614   -13.6442 0.946571
  9316 157423.5              195.516             189.932    -13.9956   -13.6317 0.946454
  9329 157643.2              195.886             190.3    -14.0806   -13.8221 0.946335
  9342 157862.9              196.25             190.668    -14.0639   -13.7625 0.946215
  9355 158082.6              196.613             191.036    -14.005   -13.7082 0.946095
  9368 158302.3              196.978             191.404    -14.1488   -13.8144 0.945975
  9381 158522.0              197.349             191.772    -14.1515   -13.921 0.945853
  9394 158741.7              197.717             192.14    -14.0762   -13.9143 0.945731
  9407 158961.4              198.079             192.509    -14.1389   -14.0782 0.945608
  9420 159181.1              198.442             192.876    -14.2213   -14.2285 0.945484
  9433 159400.8              198.812             193.243    -14.1216   -14.0345 0.945360
  9446 159620.5              199.182             193.611    -14.0986   -13.9689 0.945234
  9459 159840.2              199.548             193.979    -14.0548   -14.0128 0.945108
  9472 160059.9              199.911             194.347    -14.1267   -13.9975 0.944981
  9485 160279.6              200.276             194.716    -14.1939   -14.0341 0.944853
  9498 160499.3              200.645             195.084    -14.2456   -14.2091 0.944724
  9511 160719.0              201.014             195.453    -14.3424   -14.3607 0.944594
  9524 160938.7              201.376             195.821    -14.2788   -14.1491 0.944464
  9537 161158.4              201.736             196.189    -14.3291   -14.2385 0.944332
  9550 161378.1              202.104             196.556    -14.3041   -14.2192 0.944200
  9563 161597.8              202.475             196.924    -14.2471   -14.0571 0.944067
  9576 161817.5              202.843             197.292    -14.2875   -14.0344 0.943932
  9589 162037.2              203.204             197.661    -14.327   -14.1578 0.943797
  9602 162256.9              203.568             198.028    -14.3595   -14.144 0.943661
  9615 162476.6              203.937             198.396    -14.4243   -14.2707 0.943524
  9628 162696.3              204.308             198.765    -14.4427   -14.3022 0.943386
  9641 162916.0              204.673             199.134    -14.5602   -14.388 0.943246
  9654 163135.7              205.035             199.501    -14.48   -14.4074 0.943106
  9667 163355.4              205.402             199.869    -14.5549   -14.5215 0.942965
  9680 163575.1              205.772             200.237    -14.5506   -14.5338 0.942822
  9693 163794.8              206.14             200.605    -14.6184   -14.6767 0.942679
  9706 164014.5              206.502             200.974    -14.5461   -14.6088 0.942534
  9719 164234.2              206.863             201.343    -14.6114   -14.7122 0.942388
  9732 164453.9              207.231             201.71    -14.5844   -14.6235 0.942241
  9745 164673.6              207.601             202.078    -14.6548   -14.6476 0.942093
  9758 164893.3              207.969             202.446    -14.8171   -14.7872 0.941944
  9771 165113.0              208.333             202.814    -14.7815   -14.7167 0.941794
  9784 165332.7              208.699             203.182    -14.8597   -14.8662 0.941642
  9797 165552.4              209.061             203.551    -14.9117   -15.1622 0.941489
  9810 165772.1              209.42             203.917    -14.9326   -15.129 0.941335
  9823 165991.8              209.785             204.284    -14.9942   -15.1586 0.941180
  9836 166211.5              210.158             204.65    -14.929   -14.8813 0.941024
  9849 166431.2              210.53             205.016    -14.9495   -15.0026 0.940867
  9862 166650.9              210.899             205.383    -14.9359   -15.0422 0.940708
  9875 166870.6              211.262             205.75    -14.9061   -14.8638 0.940547
  9888 167090.3              211.63             206.118    -14.9017   -14.972 0.940385
  9901 167310.0              211.999             206.486    -14.909   -14.9647 0.940222
  9914 167529.7              212.364             206.854    -14.9993   -15.0156 0.940056
  9927 167749.4              212.728             207.222    -14.9516   -14.905 0.939890
  9940 167969.1              213.094             207.591    -15.0638   -15.1081 0.939721
  9953 168188.8              213.456             207.958    -15.1227   -15.2142 0.939552
  9966 168408.5              213.818             208.326    -15.0005   -15.1624 0.939380
  9979 168628.2              214.186             208.692    -15.1587   -15.3016 0.939208
  9992 168847.9              214.558             209.059    -15.1377   -15.2886 0.939034
 10005 169067.6              214.929             209.427    -15.0815   -15.298 0.938858
 10018 169287.3              215.296             209.796    -15.2051   -15.3665 0.938680
 10031 169507.0              215.655             210.165    -15.1313   -15.2532 0.938500
 10044 169726.7              216.019             210.532    -15.1288   -15.3759 0.938319
 10057 169946.4              216.387             210.9    -15.288   -15.3865 0.938136
 10070 170166.1              216.757             211.268    -15.3608   -15.3692 0.937951
 10083 170385.8              217.126             211.636    -15.4622   -15.575 0.937763
 10096 170605.5              217.49             212.005    -15.6095   -15.6997 0.937574
 10109 170825.2              217.857             212.374    -15.552   -15.7118 0.937383
 10122 171044.9              218.22             212.743    -15.5778   -15.7701 0.937190
 10135 171264.6              218.584             213.111    -15.4897   -15.5848 0.936995
 10148 171484.3              218.951             213.48    -15.6434   -15.9173 0.936798
 10161 171704.0              219.321             213.848    -15.53   -15.7427 0.936599
 10174 171923.7              219.69             214.217    -15.616   -15.7299 0.936397
 10187 172143.4              220.059             214.588    -15.7028   -15.9391 0.936193
 10200 172363.1              220.422             214.957    -15.7809   -15.9908 0.935987
 10213 172582.8              220.786             215.327    -15.7793   -15.9071 0.935778
 10226 172802.5              221.152             215.697    -15.7496   -15.7472 0.935566
 10239 173022.2              221.518             216.066    -15.8542   -15.9772 0.935353
 10252 173241.9              221.882             216.437    -15.9175   -16.0784 0.935137
 10265 173461.6              222.248             216.806    -15.9289   -16.183 0.934919
 10278 173681.3              222.613             217.176    -15.8958   -16.1658 0.934698
 10291 173901.0              222.98             217.546    -15.948   -16.1735 0.934474
 10304 174120.7              223.345             217.914    -16.1259   -16.2972 0.934249
 10317 174340.4              223.714             218.284    -16.0744   -16.3598 0.934020
 10330 174560.1              224.084             218.654    -15.9971   -16.4712 0.933788
 10343 174779.8              224.447             219.024    -16.1656   -16.457 0.933554
 10356 174999.5              224.81             219.394    -16.1628   -16.4947 0.933316
 10369 175219.2              225.173             219.763    -16.1113   -16.4139 0.933076
 10382 175438.9              225.539             220.131    -16.1373   -16.4163 0.932834
 10395 175658.6              225.91             220.501    -16.1951   -16.6314 0.932588
 10408 175878.3              226.279             220.87    -16.2031   -16.5659 0.932338
 10421 176098.0              226.645             221.24    -16.0329   -16.3056 0.932086
 10434 176317.7              227.008             221.609    -16.3342   -16.7587 0.931830
 10447 176537.4              227.37             221.978    -16.1361   -16.4506 0.931571
 10460 176757.1              227.738             222.346    -16.3223   -16.7746 0.931309
 10473 176976.8              228.107             222.715    -16.3606   -16.7236 0.931043
 10486 177196.5              228.477             223.084    -16.3081   -16.7082 0.930773
 10499 177416.2              228.846             223.454    -16.5514   -16.8787 0.930499
 10512 177635.9              229.209             223.823    -16.6631   -16.9254 0.930222
 10525 177855.6              229.57             224.193    -16.6641   -17.0319 0.929940
 10538 178075.3              229.935             224.563    -16.7654   -17.0407 0.929655
 10551 178295.0              230.302             224.931    -16.679   -17.09 0.929366
 10564 178514.7              230.673             225.3    -16.8015   -17.303 0.929073
 10577 178734.4              231.043             225.67    -16.858   -17.4081 0.928775
 10590 178954.1              231.41             226.04    -16.8738   -17.3461 0.928472
 10603 179173.8              231.773             226.41    -16.8492   -17.1535 0.928164
 10616 179393.5              232.134             226.781    -16.8643   -17.1656 0.927852
 10629 179613.2              232.495             227.149    -16.9939   -17.3514 0.927536
 10642 179832.9              232.862             227.518    -16.994   -17.2916 0.927216
 10655 180052.6              233.231             227.886    -16.9797   -17.2416 0.926891
 10668 180272.3              233.6             228.255    -17.1703   -17.4657 0.926560
 10681 180492.0              233.964             228.623    -17.2534   -17.7553 0.926224
 10694 180711.7              234.33             228.991    -17.3284   -17.7487 0.925884
 10707 180931.4              234.699             229.36    -17.4701   -17.9286 0.925536
 10720 181151.1              235.065             229.729    -17.4409   -17.722 0.925184
 10733 181370.8              235.433             230.098    -17.4791   -17.6607 0.924825
 10746 181590.5              235.798             230.468    -17.5983   -18.0378 0.924460
 10759 181810.2              236.161             230.836    -17.7012   -18.2215 0.924089
 10772 182029.9              236.528             231.205    -17.7335   -18.1606 0.923712
 10785 182249.6              236.895             231.574    -17.7551   -18.2952 0.923328
 10798 182469.3              237.258             231.942    -17.6355   -18.0708 0.922938
 10811 182689.0              237.624             232.31    -17.714   -18.0873 0.922541
 10824 182908.7              237.992             232.678    -17.9296   -18.3136 0.922138
 10837 183128.4              238.36             233.046    -18.0101   -18.4342 0.921726
 10850 183348.1              238.727             233.415    -18.0201   -18.52 0.921307
 10863 183567.8              239.094             233.783    -17.9988   -18.5974 0.920880
 10876 183787.5              239.462             234.152    -18.2153   -18.7084 0.920445
 10889 184007.2              239.829             234.521    -18.2684   -18.6875 0.920001
 10902 184226.9              240.191             234.891    -18.3564   -18.7807 0.919548
 10915 184446.6              240.557             235.259    -18.5507   -18.9325 0.919087
 10928 184666.3              240.923             235.629    -18.6054   -19.0501 0.918616
 10941 184886.0              241.287             235.997    -18.6383   -19.1446 0.918137
 10954 185105.7              241.653             236.365    -18.6592   -19.0445 0.917648
 10967 185325.4              242.02             236.734    -18.6527   -19.0265 0.917149
 10980 185545.1              242.388             237.103    -18.8543   -19.2521 0.916640
 10993 185764.8              242.755             237.471    -18.9435   -19.3959 0.916120
 11006 185984.5              243.121             237.841    -19.0849   -19.615 0.915588
 11019 186204.2              243.486             238.209    -19.1082   -19.8081 0.915046
 11032 186423.9              243.852             238.578    -19.3068   -20.1301 0.914492
 11045 186643.6              244.217             238.947    -19.2917   -19.8748 0.913924
 11058 186863.3              244.581             239.315    -19.4094   -19.7938 0.913347
 11071 187083.0              244.948             239.684    -19.6069   -19.9026 0.912754
 11084 187302.7              245.314             240.051    -19.5864   -19.9553 0.912151
 11097 187522.4              245.681             240.42    -19.5993   -19.9491 0.911532
 11110 187742.1              246.047             240.788    -19.8267   -20.299 0.910899
 11123 187961.8              246.413             241.155    -19.9092   -20.2986 0.910252
 11136 188181.5              246.782             241.524    -19.9409   -20.4337 0.909588
 11149 188401.2              247.148             241.892    -20.0844   -20.5297 0.908909
 11162 188620.9              247.515             242.26    -20.1637   -20.5859 0.908212
 11175 188840.6              247.879             242.628    -20.4781   -20.7735 0.907499
 11188 189060.3              248.246             242.997    -20.6952   -21.0424 0.906768
 11201 189280.0              248.612             243.365    -20.8544   -21.2631 0.906018
 11214 189499.7              248.978             243.733    -20.7968   -21.1434 0.905250
 11227 189719.4              249.346             244.102    -20.9354   -21.2657 0.904459
 11240 189939.1              249.712             244.469    -21.2287   -21.4746 0.903651
 11253 190158.8              250.078             244.838    -21.345   -21.6126 0.902820
 11266 190378.5              250.443             245.207    -21.6035   -21.9163 0.901964
 11279 190598.2              250.809             245.576    -21.812   -22.1595 0.901086
 11292 190817.9              251.176             245.944    -22.0012   -22.3499 0.900185
 11305 191037.6              251.542             246.312    -22.1569   -22.587 0.899258
 11318 191257.3              251.908             246.68    -22.3755   -22.903 0.898306
 11331 191477.0              252.274             247.049    -22.6007   -23.0697 0.897325
 11344 191696.7              252.639             247.417    -22.8503   -23.3137 0.896317
 11357 191916.4              253.004             247.785    -22.9684   -23.4288 0.895279
 11370 192136.1              253.371             248.153    -23.225   -23.6862 0.894210
 11383 192355.8              253.739             248.521    -23.4474   -23.8406 0.893110
 11396 192575.5              254.106             248.89    -23.61   -24.0086 0.891973
 11409 192795.2              254.471             249.258    -23.8712   -24.1636 0.890803
 11422 193014.9              254.837             249.626    -24.1418   -24.5422 0.889596
 11435 193234.6              255.201             249.995    -24.4708   -24.8522 0.888351
 11448 193454.3              255.567             250.363    -24.7882   -25.3114 0.887068
 11461 193674.0              255.932             250.73    -25.0264   -25.5309 0.885745
 11474 193893.7              256.3             251.098    -25.3597   -25.879 0.884374
 11487 194113.4              256.666             251.467    -25.5642   -25.9911 0.882959
 11500 194333.1              257.034             251.834    -25.7285   -26.0718 0.881498
 11513 194552.8              257.4             252.201    -26.221   -26.5151 0.879988
 11526 194772.5              257.766             252.57    -26.6069   -26.97 0.878422
 11539 194992.2              258.132             252.937    -26.972   -27.3908 0.876803
 11552 195211.9              258.498             253.306    -27.4211   -27.8269 0.875122
 11565 195431.6              258.864             253.673    -27.8656   -28.2815 0.873390
 11578 195651.3              259.231             254.041    -28.2673   -28.6325 0.871587
 11591 195871.0              259.596             254.409    -28.7684   -29.1066 0.869716
 11604 196090.7              259.964             254.776    -29.1333   -29.4668 0.867780
 11617 196310.4              260.329             255.145    -29.7228   -30.1415 0.865762
 11630 196530.1              260.696             255.513    -30.2954   -30.8212 0.863670
 11643 196749.8              261.062             255.881    -30.8492   -31.4008 0.861496
 11656 196969.5              261.427             256.249    -31.4201   -31.8373 0.859231
 11669 197189.2              261.793             256.616    -32.1894   -32.5465 0.856881
 11682 197408.9              262.16             256.984    -32.7959   -33.2157 0.854430
 11695 197628.6              262.525             257.351    -33.5077   -33.9649 0.851878
 11708 197848.3              262.891             257.719    -34.2919   -34.6986 0.849213
 11721 198068.0              263.259             258.087    -35.0714   -35.4694 0.846428
 11734 198287.7              263.625             258.456    -35.9999   -36.4688 0.843517
 11747 198507.4              263.991             258.824    -36.9869   -37.381 0.840470
 11760 198727.1              264.358             259.192    -37.9485   -38.3703 0.837283
 11773 198946.8              264.725             259.561    -39.0271   -39.5064 0.833937
 11786 199166.5              265.093             259.929    -40.1572   -40.6496 0.830441
 11799 199386.2              265.457             260.297    -41.3208   -41.8137 0.826764
 11812 199605.9              265.822             260.666    -42.5654   -43.0513 0.822887
 11825 199825.6              266.187             261.034    -43.9595   -44.5075 0.818819
 11838 200045.3              266.554             261.403    -45.4881   -46.006 0.814524
 11851 200265.0              266.92             261.77    -47.0921   -47.6788 0.809998
 11864 200484.7              267.284             262.138    -48.89   -49.3892 0.805216
 11877 200704.4              267.652             262.505    -50.7838   -51.2126 0.800156
 11890 200924.1              268.019             262.872    -52.9034   -53.3171 0.794788
 11903 201143.8              268.385             263.239    -55.1404   -55.591 0.789085
 11916 201363.5              268.752             263.605    -57.6328   -58.1178 0.783007
 11929 201583.2              269.118             263.973    -60.317   -60.8991 0.776505
 11942 201802.9              269.483             264.34    -63.2613   -63.7935 0.769543
 11955 202022.6              269.849             264.707    -66.401   -66.8759 0.762082
 11968 202242.3              270.215             265.073    -69.7854   -70.2029 0.754048
 11981 202462.0              270.582             265.44    -73.6432   -74.1045 0.745369
 11994 202681.7              270.947             265.807    -77.8629   -78.4069 0.735943
 12007 202901.4              271.313             266.174    -82.5132   -83.0988 0.725664
 12020 203121.1              271.679             266.54    -87.5867   -88.1084 0.714452
 12033 203340.8              272.045             266.907    -93.2811   -93.7521 0.702114
 12046 203560.5              272.411             267.273    -99.4104   -99.8715 0.688489
 12059 203780.2              272.778             267.639   -106.213  -106.661 0.673284
 12072 203999.9              273.145             268.005   -113.578  -113.984 0.656288
 12085 204219.6              273.51             268.371   -121.583  -122.018 0.637027
 12098 204439.3              273.876             268.736   -130.532  -130.996 0.615103
 12111 204659.0              274.242             269.102   -140.537  -140.979 0.589686
 12124 204878.7              274.608             269.467   -151.732  -152.195 0.560029
 12137 205098.4              274.977             269.832   -164.197  -164.683 0.524636
 12150 205318.1              275.342             270.197   -177.796  -178.312 0.481750
 12163 205537.8              275.707             270.561   -192.792  -193.302 0.428285
 12176 205757.5              276.074             270.926   -209.245  -209.762 0.359253
 12189 205977.2              276.438             271.289   -227.27  -227.801 0.266610
 12202 206196.9              276.803             271.652   -247.649  -248.164 0.133645
 12215 206416.6              277.167             272.015   -268.671  -269.162      NaN
 12228 206636.3              277.533             272.376   -288.164  -288.675      NaN
 12241 206856.0              277.901             272.738   -308.355  -308.877      NaN
 12254 207075.7              278.27             273.098   -328.493  -329.005      NaN
 12267 207295.4              278.638             273.46   -348.157  -348.668      NaN
 12280 207515.1              279.007             273.821   -367.259  -367.753      NaN
 12293 207734.8              279.37             274.182   -382.594  -383.091      NaN
 12306 207954.5              279.734             274.544   -389.407  -389.942      NaN
 12319 208174.2              280.099             274.905   -380.273  -380.826      NaN
 12332 208393.9              280.463             275.268   -353.6  -354.116      NaN
 12345 208613.6              280.832             275.632   -292.675  -293.148      NaN
 12358 208833.3              281.2             275.999   -198.057  -198.533      NaN
 12371 209053.0              281.568             276.37   -117.098  -117.571      NaN
 12384 209272.7              281.936             276.744    -76.5223   -76.9769      NaN
 12397 209492.4              282.3             277.118    -56.057   -56.5637      NaN
 12410 209712.1              282.664             277.492    -45.7719   -46.2768      NaN
 12423 209931.8              283.031             277.865    -40.6008   -41.1279      NaN
 12436 210151.5              283.401             278.238    -37.9728   -38.4669      NaN
 12449 210371.2              283.77             278.611    -36.643   -37.105      NaN
 12462 210590.9              284.136             278.984    -35.9663   -36.4355      NaN
 12475 210810.6              284.496             279.357    -35.616   -36.0864      NaN
 12488 211030.3              284.86             279.729    -35.4076   -35.8762      NaN
 12501 211250.0              285.225             280.1    -35.2684   -35.7586      NaN
 12514 211469.7              285.589             280.47    -35.1486   -35.6259      NaN
 12527 211689.4              285.957             280.841    -35.0271   -35.5144      NaN
 12540 211909.1              286.324             281.21    -35.0017   -35.4843      NaN
 12553 212128.8              286.695             281.58    -34.9512   -35.4418      NaN
 12566 212348.5              287.062             281.949    -34.9145   -35.3987      NaN
 12579 212568.2              287.426             282.319    -34.8759   -35.3622      NaN
 12592 212787.9              287.79             282.689    -34.8563   -35.3589      NaN
 12605 213007.6              288.159             283.058    -34.8191   -35.3156      NaN
 12618 213227.3              288.528             283.427    -34.8044   -35.3046      NaN
 12631 213447.0              288.892             283.797    -34.7876   -35.2894      NaN
 12644 213666.7              289.256             284.166    -34.7904   -35.2986      NaN
 12657 213886.4              289.623             284.535    -34.7676   -35.2769      NaN
 12670 214106.1              289.99             284.904    -34.7425   -35.2506      NaN
 12683 214325.8              290.358             285.272    -34.7104   -35.25      NaN
 12696 214545.5              290.724             285.642    -34.7302   -35.2779      NaN
 12709 214765.2              291.089             286.011    -34.7388   -35.2834      NaN
 12722 214984.9              291.451             286.38    -34.7298   -35.2727      NaN
 12735 215204.6              291.818             286.748    -34.6498   -35.1961      NaN
 12748 215424.3              292.184             287.116    -34.614   -35.1789      NaN
 12761 215644.0              292.552             287.484    -34.6065   -35.1806      NaN
 12774 215863.7              292.919             287.852    -34.6019   -35.1704      NaN
 12787 216083.4              293.286             288.22    -34.5903   -35.1615      NaN
 12800 216303.1              293.65             288.588    -34.5882   -35.1819      NaN
 12813 216522.8              294.014             288.956    -34.5599   -35.1525      NaN
 12826 216742.5              294.38             289.322    -34.5415   -35.1319      NaN
 12839 216962.2              294.75             289.69    -34.5165   -35.1311      NaN
 12852 217181.9              295.118             290.058    -34.501   -35.1121      NaN
 12865 217401.6              295.481             290.425    -34.4838   -35.1031      NaN
 12878 217621.3              295.845             290.793    -34.4526   -35.0959      NaN
 12891 217841.0              296.21             291.159    -34.4055   -35.0732      NaN
 12900 217993.1              296.462             291.413    -34.3536   -35.0312      NaN