File: z_unorganized_archive/i_data_processed/old_wt%/5.83wt%_climb_proc.txt
 Index  Time(s)  Furnace Temperature(K)  Sample Temperature(K)  HeatFlow(mW)  Q_Corrected       Fc
  6001 101400.0              108.714             109.128     -0.146204     0.337785      NaN
  6014 101619.7              108.698             109.11     -0.142779     0.357695      NaN
  6027 101839.4              108.685             109.094     -0.145928     0.347543      NaN
  6040 102059.1              108.675             109.076     -0.146573     0.342673      NaN
  6053 102278.8              108.664             109.061     -0.165071     0.336959      NaN
  6066 102498.5              108.644             109.045     -0.163211     0.322532      NaN
  6079 102718.2              108.617             109.028     -0.163858     0.328484      NaN
  6092 102937.9              108.596             109.011     -0.146019     0.347663      NaN
  6105 103157.6              108.581             108.993     -0.154186     0.335574      NaN
  6118 103377.3              108.564             108.976     -0.150758     0.336319      NaN
  6131 103597.0              108.544             108.959     -0.147643     0.347275      NaN
  6144 103816.7              108.527             108.941     -0.140138     0.359535      NaN
  6157 104036.4              108.512             108.925     -0.148935     0.346195      NaN
  6170 104256.1              108.494             108.907     -0.143937     0.354087      NaN
  6183 104475.8              108.468             108.89     -0.140506     0.349873      NaN
  6196 104695.5              108.438             108.871     -0.137075     0.351861      NaN
  6209 104915.2              108.416             108.853     -0.124545     0.366667      NaN
  6222 105134.9              108.4             108.835     -0.113894     0.379906      NaN
  6235 105354.6              108.381             108.816     -0.118618     0.371877      NaN
  6248 105574.3              108.534             108.8     -0.146877     0.349001      NaN
  6261 105794.0              109.096             108.804     -0.368123     0.121348      NaN
  6274 106013.7              109.697             108.844     -0.874697    -0.377356      NaN
  6287 106233.4              110.17             108.914     -1.531792    -1.038377      NaN
  6300 106453.1              110.558             109.01     -2.182779    -1.618172      NaN
  6313 106672.8              110.918             109.123     -2.746047    -2.080876      NaN
  6326 106892.5              111.282             109.252     -3.226649    -2.467649      NaN
  6339 107112.2              111.644             109.397     -3.653078    -2.848888      NaN
  6352 107331.9              112.008             109.556     -4.051049    -3.203100      NaN
  6365 107551.6              112.376             109.729     -4.393994    -3.505859      NaN
  6378 107771.3              112.746             109.913     -4.746248    -3.829557      NaN
  6391 107991.0              113.111             110.111     -5.055724    -4.109088      NaN
  6404 108210.7              113.473             110.319     -5.355518    -4.372608      NaN
  6417 108430.4              113.838             110.536     -5.636994    -4.624788      NaN
  6430 108650.1              114.206             110.763     -5.889594    -4.846717      NaN
  6443 108869.8              114.583             110.999     -6.145315    -5.080863      NaN
  6456 109089.5              114.953             111.246     -6.380887    -5.296236      NaN
  6469 109309.2              115.319             111.499     -6.612542    -5.496789      NaN
  6482 109528.9              115.686             111.76     -6.815338    -5.680301      NaN
  6495 109748.6              116.05             112.028     -7.011811    -5.855776      NaN
  6508 109968.3              116.416             112.302     -7.209681    -6.038583      NaN
  6521 110188.0              116.784             112.582     -7.379020    -6.178068      NaN
  6534 110407.7              117.152             112.868     -7.559586    -6.350826      NaN
  6547 110627.4              117.516             113.159     -7.719385    -6.499251      NaN
  6560 110847.1              117.873             113.453     -7.875346    -6.631825      NaN
  6573 111066.8              118.234             113.752     -8.011928    -6.757850      NaN
  6586 111286.5              118.604             114.054     -8.134507    -6.875697      NaN
  6599 111506.2              118.979             114.361     -8.258751    -6.982923      NaN
  6612 111725.9              119.352             114.671     -8.396087    -7.123468      NaN
  6625 111945.6              119.72             114.986     -8.533816    -7.236860      NaN
  6638 112165.3              120.079             115.304     -8.673463    -7.378324      NaN
  6651 112385.0              120.44             115.624     -8.781665    -7.471352      NaN
  6664 112604.7              120.806             115.947     -8.908295    -7.598394      NaN
  6677 112824.4              121.181             116.272     -9.018247    -7.697482      NaN
  6690 113044.1              121.554             116.6     -9.157198    -7.828311      NaN
  6703 113263.8              121.92             116.931     -9.290069    -7.968512      NaN
  6716 113483.5              122.285             117.265     -9.443468    -8.109735      NaN
  6729 113703.2              122.643             117.601     -9.578416    -8.245247      NaN
  6742 113922.9              123.002             117.936     -9.709571    -8.370210      NaN
  6755 114142.6              123.368             118.274     -9.861760    -8.511853      NaN
  6768 114362.3              123.739             118.613    -10.0246    -8.681799      NaN
  6781 114582.0              124.116             118.953    -10.2022    -8.853297      NaN
  6794 114801.7              124.49             119.296    -10.4197    -9.060625      NaN
  6807 115021.4              124.849             119.642    -10.655    -9.302682      NaN
  6820 115241.1              125.203             119.986    -10.8756    -9.534746      NaN
  6833 115460.8              125.565             120.332    -11.097    -9.748083      NaN
  6846 115680.5              125.936             120.679    -11.3156    -9.962443      NaN
  6859 115900.2              126.31             121.027    -11.5041   -10.1545      NaN
  6872 116119.9              126.686             121.376    -11.6312   -10.2781      NaN
  6885 116339.6              127.055             121.727    -11.6984   -10.3431      NaN
  6898 116559.3              127.418             122.081    -11.6594   -10.3025      NaN
  6911 116779.0              127.779             122.434    -11.5665   -10.2051      NaN
  6924 116998.7              128.133             122.786    -11.4395   -10.0866      NaN
  6937 117218.4              128.49             123.139    -11.3128    -9.963464      NaN
  6950 117438.1              128.856             123.492    -11.2331    -9.877014      NaN
  6963 117657.8              129.228             123.845    -11.1984    -9.854140      NaN
  6976 117877.5              129.601             124.198    -11.1964    -9.844657      NaN
  6989 118097.2              129.973             124.553    -11.2195    -9.871496      NaN
  7002 118316.9              130.34             124.908    -11.2576    -9.916812      NaN
  7015 118536.6              130.701             125.264    -11.2906    -9.951277      NaN
  7028 118756.3              131.065             125.62    -11.3156    -9.979454      NaN
  7041 118976.0              131.436             125.976    -11.3405    -9.994966      NaN
  7054 119195.7              131.805             126.333    -11.3792   -10.0402      NaN
  7067 119415.4              132.169             126.692    -11.4044   -10.0663      NaN
  7080 119635.1              132.534             127.05    -11.4337   -10.1071      NaN
  7093 119854.8              132.904             127.409    -11.4742   -10.1521      NaN
  7106 120074.5              133.272             127.768    -11.4933   -10.1658      NaN
  7119 120294.2              133.63             128.127    -11.5323   -10.2119      NaN
  7132 120513.9              133.991             128.486    -11.5538   -10.2263      NaN
  7145 120733.6              134.358             128.844    -11.5632   -10.2416      NaN
  7158 120953.3              134.731             129.203    -11.5846   -10.283      NaN
  7171 121173.0              135.105             129.563    -11.6105   -10.3026      NaN
  7184 121392.7              135.479             129.925    -11.6576   -10.3517      NaN
  7197 121612.4              135.844             130.287    -11.6933   -10.3825      NaN
  7210 121832.1              136.207             130.649    -11.7279   -10.426      NaN
  7223 122051.8              136.565             131.011    -11.7569   -10.4529      NaN
  7236 122271.5              136.921             131.373    -11.7786   -10.4859      NaN
  7249 122491.2              137.283             131.734    -11.7722   -10.4697      NaN
  7262 122710.9              137.652             132.094    -11.7719   -10.4769      NaN
  7275 122930.6              138.026             132.455    -11.7838   -10.5058      NaN
  7288 123150.3              138.403             132.817    -11.8055   -10.5239      NaN
  7301 123370.0              138.773             133.181    -11.8408   -10.5541      NaN
  7314 123589.7              139.137             133.544    -11.8786   -10.5979      NaN
  7327 123809.4              139.494             133.908    -11.9029   -10.6317      NaN
  7340 124029.1              139.851             134.27    -11.9088   -10.6341      NaN
  7353 124248.8              140.214             134.631    -11.9138   -10.641      NaN
  7366 124468.5              140.583             134.993    -11.9222   -10.6576      NaN
  7379 124688.2              140.958             135.355    -11.9378   -10.6667      NaN
  7392 124907.9              141.335             135.719    -11.9566   -10.6983      NaN
  7405 125127.6              141.702             136.083    -11.9984   -10.7444      NaN
  7418 125347.3              142.063             136.447    -12.0363   -10.7724      NaN
  7431 125567.0              142.42             136.812    -12.0597   -10.8004      NaN
  7444 125786.7              142.777             137.174    -12.0608   -10.8063      NaN
  7457 126006.4              143.14             137.536    -12.0606   -10.8132      NaN
  7470 126226.1              143.511             137.898    -12.0572   -10.8138      NaN
  7483 126445.8              143.886             138.26    -12.0775   -10.8308      NaN
  7496 126665.5              144.262             138.623    -12.0954   -10.8553      NaN
  7509 126885.2              144.631             138.988    -12.1323   -10.8994      NaN
  7522 127104.9              144.993             139.353    -12.1663   -10.9342      NaN
  7535 127324.6              145.35             139.717    -12.1975   -10.9745      NaN
  7548 127544.3              145.707             140.081    -12.2059   -10.9824      NaN
  7561 127764.0              146.071             140.443    -12.1962   -10.9656      NaN
  7574 127983.7              146.441             140.806    -12.1934   -10.9601      NaN
  7587 128203.4              146.817             141.168    -12.2074   -10.9838      NaN
  7600 128423.1              147.195             141.533    -12.2244   -11.003      NaN
  7613 128642.8              147.564             141.899    -12.2594   -11.036      NaN
  7626 128862.5              147.926             142.265    -12.282   -11.0647      NaN
  7639 129082.2              148.286             142.63    -12.2981   -11.0899      NaN
  7652 129301.9              148.649             142.996    -12.2996   -11.0903      NaN
  7665 129521.6              149.007             143.361    -12.2874   -11.0778      NaN
  7678 129741.3              149.366             143.725    -12.2438   -11.0339      NaN
  7691 129961.0              149.732             144.089    -12.1723   -10.9757      NaN
  7704 130180.7              150.103             144.452    -12.1102   -10.9155      NaN
  7717 130400.4              150.478             144.816    -12.0255   -10.8311      NaN
  7730 130620.1              150.848             145.182    -11.91   -10.7115      NaN
  7743 130839.8              151.215             145.546    -11.7554   -10.5663      NaN
  7756 131059.5              151.578             145.912    -11.5701   -10.3857      NaN
  7769 131279.2              151.937             146.278    -11.3078   -10.129      NaN
  7782 131498.9              152.297             146.642    -10.9487    -9.771436      NaN
  7795 131718.6              152.664             147.005    -10.4986    -9.321147      NaN
  7808 131938.3              153.036             147.369     -9.938242    -8.765883      NaN
  7821 132158.0              153.409             147.734     -9.249667    -8.084326      NaN
  7834 132377.7              153.777             148.1     -8.374980    -7.214645      NaN
  7847 132597.4              154.138             148.465     -7.291892    -6.133329      NaN
  7860 132817.1              154.501             148.831     -5.930519    -4.774210      NaN
  7873 133036.8              154.871             149.195     -4.237014    -3.083937      NaN
  7886 133256.5              155.244             149.562     -2.170417    -1.022286      NaN
  7899 133476.2              155.614             149.928      0.335210     1.486292      NaN
  7912 133695.9              155.978             150.296      3.325499     4.461108      NaN
  7925 133915.6              156.34             150.664      6.831545     7.946101      NaN
  7938 134135.3              156.697             151.031     10.7864    11.8996      NaN
  7951 134355.0              157.057             151.397     14.9836    16.0882      NaN
  7964 134574.7              157.423             151.763     19.0098    20.1195      NaN
  7977 134794.4              157.795             152.129     22.2751    23.3897      NaN
  7990 135014.1              158.168             152.495     24.0549    25.1492      NaN
  8003 135233.8              158.539             152.862     23.6719    24.7642      NaN
  8016 135453.5              158.904             153.229     20.7985    21.8972      NaN
  8029 135673.2              159.263             153.596     15.6692    16.7741      NaN
  8042 135892.9              159.625             153.962      9.251401    10.3448      NaN
  8055 136112.6              159.991             154.327      2.917354     4.006766      NaN
  8068 136332.3              160.363             154.692     -2.361040    -1.275323      NaN
  8081 136552.0              160.735             155.058     -6.088957    -5.018699      NaN
  8094 136771.7              161.104             155.423     -8.341624    -7.276447      NaN
  8107 136991.4              161.468             155.79     -9.572769    -8.517449      NaN
  8120 137211.1              161.83             156.157    -10.2073    -9.162723      NaN
  8133 137430.8              162.197             156.522    -10.5598    -9.496868      NaN
  8146 137650.5              162.563             156.889    -10.8158    -9.752713      NaN
  8159 137870.2              162.927             157.256    -10.9931    -9.920442      NaN
  8172 138089.9              163.294             157.622    -11.132   -10.0789      NaN
  8185 138309.6              163.666             157.989    -11.2416   -10.2096      NaN
  8198 138529.3              164.037             158.357    -11.324   -10.2991      NaN
  8211 138749.0              164.4             158.724    -11.4481   -10.4165      NaN
  8224 138968.7              164.761             159.092    -11.5074   -10.4713      NaN
  8237 139188.4              165.122             159.458    -11.607   -10.6147      NaN
  8250 139408.1              165.481             159.825    -11.6579   -10.6535      NaN
  8263 139627.8              165.846             160.192    -11.6681   -10.6709      NaN
  8276 139847.5              166.217             160.558    -11.6571   -10.6893      NaN
  8289 140067.2              166.589             160.924    -11.6988   -10.7053      NaN
  8302 140286.9              166.962             161.29    -11.7392   -10.7868      NaN
  8315 140506.6              167.331             161.658    -11.7547   -10.7967      NaN
  8328 140726.3              167.694             162.026    -11.7634   -10.8052      NaN
  8341 140946.0              168.054             162.394    -11.7861   -10.8585      NaN
  8354 141165.7              168.413             162.76    -11.7926   -10.889      NaN
  8367 141385.4              168.776             163.127    -11.8263   -10.8915      NaN
  8380 141605.1              169.144             163.492    -11.8226   -10.8848      NaN
  8393 141824.8              169.516             163.858    -11.8474   -10.9011      NaN
  8406 142044.5              169.884             164.225    -11.8734   -10.9746      NaN
  8419 142264.2              170.251             164.591    -11.7974   -10.8737      NaN
  8432 142483.9              170.62             164.957    -11.7905   -10.8691      NaN
  8445 142703.6              170.986             165.324    -11.8752   -10.9452      NaN
  8458 142923.3              171.347             165.691    -11.9596   -11.0705      NaN
  8471 143143.0              171.711             166.058    -11.9817   -11.1157      NaN
  8484 143362.7              172.079             166.425    -12.0253   -11.161      NaN
  8497 143582.4              172.451             166.792    -12.1095   -11.2687      NaN
  8510 143802.1              172.822             167.159    -12.112   -11.2954      NaN
  8523 144021.8              173.189             167.527    -12.1432   -11.3533      NaN
  8536 144241.5              173.554             167.895    -12.1866   -11.3919      NaN
  8549 144461.2              173.914             168.264    -12.335   -11.5511      NaN
  8562 144680.9              174.271             168.631    -12.509   -11.7366      NaN
  8575 144900.6              174.636             168.997    -12.7375   -11.9809      NaN
  8588 145120.3              175.006             169.364    -13.1991   -12.4212      NaN
  8601 145340.0              175.375             169.731    -14.0471   -13.2594      NaN
  8614 145559.7              175.742             170.097    -15.3211   -14.6035      NaN
  8627 145779.4              176.109             170.464    -16.9588   -16.211      NaN
  8640 145999.1              176.48             170.831    -19.8626   -19.1483      NaN
  8653 146218.8              176.847             171.198    -15.9469   -15.1967      NaN
  8666 146438.5              177.206             171.566     -2.251207    -1.572343      NaN
  8679 146658.2              177.569             171.933     -6.216528    -5.561030      NaN
  8692 146877.9              177.937             172.301     -9.767349    -9.145008      NaN
  8705 147097.6              178.306             172.668    -11.3969   -10.76      NaN
  8718 147317.3              178.677             173.036    -12.0994   -11.4419      NaN
  8731 147537.0              179.045             173.403    -12.428   -11.787      NaN
  8744 147756.7              179.407             173.772    -12.5678   -11.9749      NaN
  8757 147976.4              179.766             174.138    -12.7009   -12.0997      NaN
  8770 148196.1              180.131             174.505    -12.7895   -12.2013      NaN
  8783 148415.8              180.499             174.873    -13.1348   -12.5197      NaN
  8796 148635.5              180.869             175.239    -14.0076   -13.3922 0.822657
  8809 148855.2              181.239             175.606    -16.6383   -15.9987 0.822306
  8822 149074.9              181.609             175.974    -26.8715   -26.3453 0.821952
  8835 149294.6              181.973             176.341    -56.8653   -56.3326 0.821598
  8848 149514.3              182.335             176.706    -99.247   -98.5945 0.821243
  8861 149734.0              182.696             177.069   -125.693  -125.11 0.820891
  8874 149953.7              183.063             177.432   -115.613  -115.029 0.820536
  8887 150173.4              183.433             177.796   -117.366  -116.906 0.820180
  8900 150393.1              183.804             178.162    -56.2155   -55.7198 0.819819
  8913 150612.8              184.17             178.531    -31.9764   -31.4046 0.819455
  8926 150832.5              184.532             178.901    -22.031   -21.5112 0.819088
  8939 151052.2              184.898             179.27    -17.9205   -17.3604 0.818720
  8952 151271.9              185.263             179.639    -16.2946   -15.8288 0.818351
  8965 151491.6              185.627             180.007    -15.5979   -15.1159 0.817981
  8978 151711.3              185.995             180.376    -15.3039   -14.7953 0.817609
  8991 151931.0              186.365             180.745    -15.2242   -14.7416 0.817235
  9004 152150.7              186.734             181.113    -15.1714   -14.6334 0.816859
  9017 152370.4              187.102             181.483    -15.2236   -14.6651 0.816481
  9030 152590.1              187.467             181.854    -15.3273   -14.8109 0.816100
  9043 152809.8              187.828             182.223    -15.406   -14.9844 0.815719
  9056 153029.5              188.187             182.592    -15.2957   -14.8267 0.815336
  9069 153249.2              188.55             182.961    -15.4423   -15.0265 0.814952
  9082 153468.9              188.919             183.328    -15.4182   -15.029 0.814567
  9095 153688.6              189.292             183.696    -15.4589   -15.027 0.814180
  9108 153908.3              189.662             184.064    -15.5363   -15.1288 0.813791
  9121 154128.0              190.029             184.432    -15.4629   -15.0874 0.813399
  9134 154347.7              190.389             184.801    -15.5445   -15.235 0.813005
  9147 154567.4              190.751             185.171    -15.6287   -15.3256 0.812608
  9160 154787.1              191.117             185.538    -15.5049   -15.1801 0.812212
  9173 155006.8              191.486             185.905    -15.6117   -15.2312 0.811813
  9186 155226.5              191.857             186.274    -15.5871   -15.2621 0.811412
  9199 155446.2              192.226             186.642    -15.6915   -15.2959 0.811008
  9212 155665.9              192.59             187.01    -15.7289   -15.317 0.810602
  9225 155885.6              192.955             187.379    -15.8785   -15.4458 0.810193
  9238 156105.3              193.323             187.747    -15.8278   -15.5262 0.809783
  9251 156325.0              193.693             188.116    -15.7892   -15.4714 0.809369
  9264 156544.7              194.059             188.485    -15.8457   -15.4673 0.808953
  9277 156764.4              194.424             188.855    -15.8418   -15.5095 0.808534
  9290 156984.1              194.786             189.225    -15.9218   -15.5595 0.808112
  9303 157203.8              195.15             189.594    -15.9927   -15.6755 0.807689
  9316 157423.5              195.516             189.963    -15.9715   -15.6076 0.807263
  9329 157643.2              195.878             190.331    -15.947   -15.6885 0.806836
  9342 157862.9              196.241             190.698    -15.9185   -15.6172 0.806406
  9355 158082.6              196.608             191.065    -16.0391   -15.7423 0.805975
  9368 158302.3              196.979             191.433    -15.9061   -15.5716 0.805541
  9381 158522.0              197.352             191.802    -16.0978   -15.8673 0.805103
  9394 158741.7              197.719             192.17    -16.1879   -16.026 0.804662
  9407 158961.4              198.082             192.539    -16.3251   -16.2645 0.804218
  9420 159181.1              198.443             192.908    -16.3326   -16.3397 0.803771
  9433 159400.8              198.807             193.275    -16.3776   -16.2906 0.803323
  9446 159620.5              199.174             193.642    -16.2782   -16.1484 0.802873
  9459 159840.2              199.545             194.01    -16.1591   -16.117 0.802419
  9472 160059.9              199.915             194.378    -16.3344   -16.2052 0.801961
  9485 160279.6              200.279             194.747    -16.4839   -16.3241 0.801499
  9498 160499.3              200.641             195.115    -16.2925   -16.256 0.801036
  9511 160719.0              201.01             195.483    -16.5541   -16.5723 0.800569
  9524 160938.7              201.38             195.85    -16.6525   -16.5228 0.800100
  9537 161158.4              201.746             196.22    -16.6278   -16.5371 0.799624
  9550 161378.1              202.108             196.588    -16.6437   -16.5588 0.799147
  9563 161597.8              202.469             196.956    -16.7656   -16.5756 0.798667
  9576 161817.5              202.834             197.323    -16.7312   -16.4781 0.798185
  9589 162037.2              203.202             197.691    -16.7393   -16.5701 0.797699
  9602 162256.9              203.571             198.059    -16.7379   -16.5224 0.797208
  9615 162476.6              203.934             198.426    -16.5726   -16.419 0.796715
  9628 162696.3              204.299             198.793    -16.7283   -16.5878 0.796219
  9641 162916.0              204.668             199.16    -16.8576   -16.6854 0.795719
  9654 163135.7              205.037             199.527    -17.0034   -16.9308 0.795217
  9667 163355.4              205.408             199.894    -16.8771   -16.8437 0.794708
  9680 163575.1              205.777             200.263    -17.038   -17.0212 0.794194
  9693 163794.8              206.142             200.632    -17.1868   -17.245 0.793677
  9706 164014.5              206.503             201.001    -17.2292   -17.2918 0.793154
  9719 164234.2              206.865             201.369    -17.4255   -17.5263 0.792630
  9732 164453.9              207.229             201.738    -17.4554   -17.4946 0.792099
  9745 164673.6              207.599             202.105    -17.3562   -17.3491 0.791568
  9758 164893.3              207.969             202.474    -17.3554   -17.3255 0.791030
  9771 165113.0              208.337             202.842    -17.2711   -17.2064 0.790488
  9784 165332.7              208.704             203.211    -17.152   -17.1585 0.789941
  9797 165552.4              209.068             203.58    -17.2931   -17.5436 0.789388
  9810 165772.1              209.428             203.949    -17.5144   -17.7107 0.788832
  9823 165991.8              209.794             204.317    -17.3212   -17.4857 0.788271
  9836 166211.5              210.16             204.685    -17.388   -17.3403 0.787707
  9849 166431.2              210.526             205.052    -17.5635   -17.6166 0.787138
  9862 166650.9              210.893             205.42    -17.5371   -17.6433 0.786565
  9875 166870.6              211.26             205.787    -17.6568   -17.6145 0.785986
  9888 167090.3              211.628             206.155    -17.5243   -17.5945 0.785402
  9901 167310.0              211.993             206.523    -17.4932   -17.5489 0.784812
  9914 167529.7              212.358             206.891    -17.7365   -17.7527 0.784217
  9927 167749.4              212.724             207.259    -17.835   -17.7884 0.783617
  9940 167969.1              213.09             207.626    -18.0012   -18.0455 0.783013
  9953 168188.8              213.456             207.993    -18.1304   -18.2219 0.782402
  9966 168408.5              213.825             208.361    -18.1712   -18.333 0.781786
  9979 168628.2              214.193             208.728    -17.9475   -18.0904 0.781164
  9992 168847.9              214.56             209.097    -18.0805   -18.2314 0.780534
 10005 169067.6              214.925             209.463    -18.1569   -18.3733 0.779902
 10018 169287.3              215.291             209.831    -18.328   -18.4894 0.779261
 10031 169507.0              215.655             210.2    -18.3708   -18.4926 0.778613
 10044 169726.7              216.02             210.568    -18.475   -18.7221 0.777960
 10057 169946.4              216.385             210.936    -18.6167   -18.7152 0.777300
 10070 170166.1              216.755             211.303    -18.6467   -18.6551 0.776634
 10083 170385.8              217.122             211.671    -18.5409   -18.6537 0.775962
 10096 170605.5              217.493             212.039    -18.5078   -18.5979 0.775281
 10109 170825.2              217.862             212.408    -18.6754   -18.8351 0.774593
 10122 171044.9              218.223             212.776    -18.9157   -19.108 0.773898
 10135 171264.6              218.584             213.145    -18.8745   -18.9696 0.773195
 10148 171484.3              218.949             213.513    -18.9272   -19.201 0.772486
 10161 171704.0              219.317             213.882    -18.8357   -19.0483 0.771768
 10174 171923.7              219.687             214.25    -18.759   -18.8729 0.771045
 10187 172143.4              220.057             214.619    -19.0082   -19.2445 0.770310
 10200 172363.1              220.424             214.988    -19.2253   -19.4352 0.769567
 10213 172582.8              220.785             215.357    -19.3065   -19.4342 0.768817
 10226 172802.5              221.146             215.726    -19.4588   -19.4564 0.768058
 10239 173022.2              221.511             216.095    -19.5126   -19.6356 0.767292
 10252 173241.9              221.875             216.462    -19.6588   -19.8197 0.766519
 10265 173461.6              222.243             216.83    -19.5926   -19.8466 0.765736
 10278 173681.3              222.61             217.199    -19.7737   -20.0437 0.764943
 10291 173901.0              222.976             217.566    -19.5498   -19.7752 0.764143
 10304 174120.7              223.347             217.933    -19.7425   -19.9138 0.763335
 10317 174340.4              223.716             218.302    -19.9499   -20.2353 0.762514
 10330 174560.1              224.082             218.67    -20.024   -20.498 0.761683
 10343 174779.8              224.447             219.039    -20.1999   -20.4913 0.760841
 10356 174999.5              224.814             219.408    -20.1479   -20.4798 0.759988
 10369 175219.2              225.182             219.777    -20.273   -20.5757 0.759123
 10382 175438.9              225.549             220.147    -20.2585   -20.5375 0.758248
 10395 175658.6              225.916             220.516    -20.504   -20.9403 0.757361
 10408 175878.3              226.282             220.886    -20.8328   -21.1956 0.756463
 10421 176098.0              226.643             221.255    -20.8065   -21.0792 0.755553
 10434 176317.7              227.006             221.625    -20.9339   -21.3584 0.754632
 10447 176537.4              227.373             221.994    -20.9351   -21.2496 0.753699
 10460 176757.1              227.741             222.363    -20.6354   -21.0876 0.752753
 10473 176976.8              228.105             222.732    -20.8456   -21.2086 0.751795
 10486 177196.5              228.468             223.101    -21.0432   -21.4434 0.750825
 10499 177416.2              228.837             223.469    -21.1588   -21.4861 0.749844
 10512 177635.9              229.206             223.838    -21.1245   -21.3868 0.748846
 10525 177855.6              229.575             224.207    -21.3577   -21.7255 0.747834
 10538 178075.3              229.94             224.576    -21.5579   -21.8332 0.746807
 10551 178295.0              230.303             224.945    -21.6396   -22.0506 0.745766
 10564 178514.7              230.665             225.314    -21.7022   -22.2037 0.744711
 10577 178734.4              231.032             225.682    -21.7279   -22.2779 0.743641
 10590 178954.1              231.398             226.051    -21.9996   -22.4719 0.742555
 10603 179173.8              231.763             226.419    -22.2013   -22.5055 0.741454
 10616 179393.5              232.132             226.787    -22.2736   -22.5749 0.740338
 10629 179613.2              232.501             227.155    -22.3883   -22.7458 0.739201
 10642 179832.9              232.869             227.523    -22.6849   -22.9825 0.738050
 10655 180052.6              233.234             227.891    -22.637   -22.8989 0.736881
 10668 180272.3              233.602             228.26    -22.8259   -23.1213 0.735689
 10681 180492.0              233.974             228.629    -23.0325   -23.5344 0.734479
 10694 180711.7              234.343             228.998    -23.2195   -23.6399 0.733249
 10707 180931.4              234.705             229.369    -23.3552   -23.8136 0.731992
 10720 181151.1              235.067             229.739    -23.4607   -23.7419 0.730718
 10733 181370.8              235.424             230.109    -23.6359   -23.8174 0.729424
 10746 181590.5              235.788             230.477    -23.8119   -24.2514 0.728115
 10759 181810.2              236.155             230.844    -23.9315   -24.4517 0.726784
 10772 182029.9              236.52             231.212    -23.9763   -24.4033 0.725431
 10785 182249.6              236.887             231.578    -24.2466   -24.7867 0.724058
 10798 182469.3              237.257             231.946    -24.4108   -24.8462 0.722658
 10811 182689.0              237.626             232.314    -24.466   -24.8393 0.721229
 10824 182908.7              237.995             232.682    -24.6415   -25.0255 0.719778
 10837 183128.4              238.362             233.05    -24.7782   -25.2023 0.718298
 10850 183348.1              238.728             233.418    -24.8973   -25.3972 0.716789
 10863 183567.8              239.093             233.786    -24.9086   -25.5072 0.715254
 10876 183787.5              239.459             234.154    -25.3206   -25.8137 0.713691
 10889 184007.2              239.823             234.523    -25.5942   -26.0133 0.712095
 10902 184226.9              240.191             234.891    -25.9027   -26.327 0.710469
 10915 184446.6              240.557             235.259    -25.9364   -26.3183 0.708813
 10928 184666.3              240.92             235.627    -26.0549   -26.4996 0.707124
 10941 184886.0              241.286             235.996    -26.3924   -26.8988 0.705399
 10954 185105.7              241.654             236.364    -26.595   -26.9802 0.703641
 10967 185325.4              242.021             236.732    -26.7729   -27.1466 0.701848
 10980 185545.1              242.384             237.101    -27.1372   -27.5351 0.700017
 10993 185764.8              242.749             237.468    -27.507   -27.9594 0.698151
 11006 185984.5              243.116             237.835    -27.6759   -28.206 0.696249
 11019 186204.2              243.486             238.203    -27.955   -28.6549 0.694302
 11032 186423.9              243.857             238.571    -28.1761   -28.9994 0.692309
 11045 186643.6              244.225             238.94    -28.5595   -29.1426 0.690271
 11058 186863.3              244.59             239.31    -28.9006   -29.285 0.688184
 11071 187083.0              244.951             239.679    -29.1635   -29.4593 0.686052
 11084 187302.7              245.312             240.047    -29.5278   -29.8967 0.683876
 11097 187522.4              245.677             240.415    -29.8044   -30.1543 0.681652
 11110 187742.1              246.045             240.783    -30.1226   -30.5949 0.679377
 11123 187961.8              246.412             241.149    -30.4088   -30.7981 0.677060
 11136 188181.5              246.78             241.517    -30.7218   -31.2145 0.674672
 11149 188401.2              247.148             241.885    -30.9846   -31.4299 0.672228
 11162 188620.9              247.517             242.253    -31.4478   -31.8699 0.669728
 11175 188840.6              247.884             242.622    -31.9941   -32.2895 0.667156
 11188 189060.3              248.248             242.991    -32.4224   -32.7696 0.664523
 11201 189280.0              248.614             243.36    -32.8084   -33.2171 0.661822
 11214 189499.7              248.98             243.728    -33.0527   -33.3993 0.659053
 11227 189719.4              249.342             244.096    -33.5355   -33.8657 0.656217
 11240 189939.1              249.705             244.464    -34.0884   -34.3344 0.653309
 11253 190158.8              250.071             244.831    -34.5716   -34.8392 0.650328
 11266 190378.5              250.436             245.198    -34.9697   -35.2825 0.647264
 11279 190598.2              250.803             245.565    -35.3408   -35.6883 0.644124
 11292 190817.9              251.172             245.932    -35.821   -36.1697 0.640891
 11305 191037.6              251.541             246.299    -36.2575   -36.6876 0.637576
 11318 191257.3              251.91             246.667    -36.903   -37.4305 0.634153
 11331 191477.0              252.278             247.034    -37.5328   -38.0018 0.630636
 11344 191696.7              252.64             247.403    -38.216   -38.6794 0.627012
 11357 191916.4              253.005             247.769    -38.8722   -39.3326 0.623295
 11370 192136.1              253.371             248.139    -39.5321   -39.9933 0.619441
 11383 192355.8              253.738             248.505    -40.3354   -40.7286 0.615500
 11396 192575.5              254.103             248.874    -40.9462   -41.3448 0.611416
 11409 192795.2              254.471             249.242    -41.8338   -42.1263 0.607216
 11422 193014.9              254.839             249.609    -42.5149   -42.9154 0.602887
 11435 193234.6              255.205             249.977    -43.4512   -43.8326 0.598418
 11448 193454.3              255.573             250.346    -44.3817   -44.9049 0.593799
 11461 193674.0              255.937             250.714    -45.2456   -45.75 0.589032
 11474 193893.7              256.3             251.082    -45.9891   -46.5084 0.584112
 11487 194113.4              256.664             251.45    -46.8664   -47.2934 0.579022
 11500 194333.1              257.03             251.818    -47.9867   -48.33 0.573776
 11513 194552.8              257.397             252.184    -48.8066   -49.1007 0.568359
 11526 194772.5              257.763             252.552    -49.8762   -50.2394 0.562744
 11539 194992.2              258.133             252.919    -51.1482   -51.567 0.556933
 11552 195211.9              258.501             253.287    -52.2699   -52.6757 0.550916
 11565 195431.6              258.868             253.655    -53.5663   -53.9823 0.544672
 11578 195651.3              259.231             254.022    -54.9929   -55.358 0.538206
 11591 195871.0              259.595             254.391    -56.4359   -56.7741 0.531484
 11604 196090.7              259.962             254.758    -57.9958   -58.3293 0.524527
 11617 196310.4              260.327             255.125    -59.531   -59.9498 0.517314
 11630 196530.1              260.695             255.493    -61.0512   -61.577 0.509791
 11643 196749.8              261.063             255.86    -62.866   -63.4176 0.502010
 11656 196969.5              261.434             256.228    -64.6029   -65.0201 0.493890
 11669 197189.2              261.803             256.597    -66.5625   -66.9196 0.485411
 11682 197408.9              262.164             256.966    -68.6171   -69.0369 0.476575
 11695 197628.6              262.526             257.334    -70.7411   -71.1983 0.467397
 11708 197848.3              262.887             257.701    -72.9403   -73.347 0.457826
 11721 198068.0              263.252             258.068    -75.2343   -75.6323 0.447863
 11734 198287.7              263.62             258.435    -77.5359   -78.0047 0.437442
 11747 198507.4              263.985             258.801    -80.082   -80.4761 0.426581
 11760 198727.1              264.351             259.167    -82.8586   -83.2804 0.415217
 11773 198946.8              264.721             259.533    -85.6822   -86.1614 0.403312
 11786 199166.5              265.09             259.901    -88.558   -89.0504 0.390788
 11799 199386.2              265.459             260.267    -91.7814   -92.2743 0.377668
 11812 199605.9              265.825             260.634    -95.172   -95.658 0.363856
 11825 199825.6              266.188             261.001    -98.7426   -99.2906 0.349305
 11838 200045.3              266.554             261.368   -102.493  -103.011 0.333997
 11851 200265.0              266.918             261.735   -106.363  -106.95 0.317848
 11864 200484.7              267.283             262.101   -110.242  -110.741 0.300786
 11877 200704.4              267.65             262.467   -114.079  -114.507 0.282727
 11890 200924.1              268.016             262.832   -118.111  -118.525 0.263628
 11903 201143.8              268.382             263.198   -122.139  -122.59 0.243294
 11916 201363.5              268.747             263.563   -126.659  -127.144 0.221686
 11929 201583.2              269.12             263.929   -131.327  -131.909 0.198556
 11942 201802.9              269.488             264.296   -135.953  -136.485 0.173769
 11955 202022.6              269.856             264.663   -140.717  -141.192 0.147120
 11968 202242.3              270.219             265.03   -145.453  -145.871 0.118421
 11981 202462.0              270.582             265.396   -150.013  -150.474 0.087513
 11994 202681.7              270.946             265.763   -154.447  -154.991 0.053942
 12007 202901.4              271.311             266.128   -158.625  -159.21 0.017528
 12020 203121.1              271.677             266.494   -162.762  -163.284      NaN
 12033 203340.8              272.045             266.86   -166.282  -166.753      NaN
 12046 203560.5              272.411             267.226   -168.143  -168.604      NaN
 12059 203780.2              272.781             267.593   -168.604  -169.052      NaN
 12072 203999.9              273.145             267.959   -169.537  -169.943      NaN
 12085 204219.6              273.512             268.326   -169.494  -169.929      NaN
 12098 204439.3              273.878             268.693   -162.884  -163.349      NaN
 12111 204659.0              274.248             269.06   -153.863  -154.306      NaN
 12124 204878.7              274.619             269.429   -142.489  -142.952      NaN
 12137 205098.4              274.984             269.799   -123.989  -124.475      NaN
 12150 205318.1              275.345             270.17    -80.9797   -81.4962      NaN
 12163 205537.8              275.708             270.541    -57.1317   -57.6412      NaN
 12176 205757.5              276.069             270.912    -45.1074   -45.6247      NaN
 12189 205977.2              276.435             271.283    -39.0685   -39.5996      NaN
 12202 206196.9              276.806             271.654    -36.0547   -36.5696      NaN
 12215 206416.6              277.176             272.025    -34.5617   -35.0522      NaN
 12228 206636.3              277.54             272.395    -33.8217   -34.3328      NaN
 12241 206856.0              277.905             272.766    -33.4347   -33.9566      NaN
 12254 207075.7              278.268             273.136    -33.2465   -33.7579      NaN
 12267 207295.4              278.634             273.506    -33.0852   -33.5954      NaN
 12280 207515.1              278.999             273.875    -32.9756   -33.4695      NaN
 12293 207734.8              279.365             274.244    -32.9307   -33.4276      NaN
 12306 207954.5              279.733             274.612    -32.8927   -33.4274      NaN
 12319 208174.2              280.101             274.981    -32.8473   -33.4008      NaN
 12332 208393.9              280.466             275.35    -32.8331   -33.3482      NaN
 12345 208613.6              280.832             275.717    -32.795   -33.2673      NaN
 12358 208833.3              281.2             276.085    -32.811   -33.2868      NaN
 12371 209053.0              281.569             276.453    -32.7453   -33.2184      NaN
 12384 209272.7              281.936             276.822    -32.7293   -33.1839      NaN
 12397 209492.4              282.302             277.191    -32.77   -33.2768      NaN
 12410 209712.1              282.665             277.559    -32.7991   -33.304      NaN
 12423 209931.8              283.03             277.928    -32.7506   -33.2777      NaN
 12436 210151.5              283.398             278.295    -32.7808   -33.2749      NaN
 12449 210371.2              283.766             278.663    -32.7221   -33.1841      NaN
 12462 210590.9              284.135             279.032    -32.7256   -33.1947      NaN
 12475 210810.6              284.5             279.401    -32.7649   -33.2354      NaN
 12488 211030.3              284.862             279.77    -32.7695   -33.2382      NaN
 12501 211250.0              285.227             280.138    -32.7308   -33.2209      NaN
 12514 211469.7              285.592             280.507    -32.7137   -33.191      NaN
 12527 211689.4              285.958             280.874    -32.7135   -33.2008      NaN
 12540 211909.1              286.323             281.241    -32.7404   -33.2229      NaN
 12553 212128.8              286.692             281.61    -32.7142   -33.2047      NaN
 12566 212348.5              287.058             281.977    -32.6777   -33.1619      NaN
 12579 212568.2              287.424             282.344    -32.6875   -33.1738      NaN
 12592 212787.9              287.791             282.711    -32.6589   -33.1615      NaN
 12605 213007.6              288.158             283.079    -32.6541   -33.1506      NaN
 12618 213227.3              288.526             283.447    -32.6625   -33.1628      NaN
 12631 213447.0              288.891             283.814    -32.6618   -33.1636      NaN
 12644 213666.7              289.254             284.182    -32.6689   -33.1771      NaN
 12657 213886.4              289.621             284.549    -32.6397   -33.149      NaN
 12670 214106.1              289.987             284.917    -32.6464   -33.1545      NaN
 12683 214325.8              290.356             285.284    -32.6492   -33.1888      NaN
 12696 214545.5              290.726             285.652    -32.6562   -33.2039      NaN
 12709 214765.2              291.092             286.02    -32.6431   -33.1877      NaN
 12722 214984.9              291.456             286.387    -32.661   -33.2039      NaN
 12735 215204.6              291.82             286.757    -32.6571   -33.2034      NaN
 12748 215424.3              292.182             287.123    -32.6529   -33.2179      NaN
 12761 215644.0              292.549             287.491    -32.6476   -33.2217      NaN
 12774 215863.7              292.916             287.858    -32.6448   -33.2133      NaN
 12787 216083.4              293.282             288.226    -32.6413   -33.2125      NaN
 12800 216303.1              293.648             288.593    -32.6026   -33.1963      NaN
 12813 216522.8              294.011             288.959    -32.5641   -33.1567      NaN
 12826 216742.5              294.377             289.325    -32.5553   -33.1457      NaN
 12839 216962.2              294.749             289.691    -32.5301   -33.1447      NaN
 12852 217181.9              295.12             290.058    -32.5103   -33.1214      NaN
 12865 217401.6              295.488             290.426    -32.5354   -33.1547      NaN
 12878 217621.3              295.852             290.793    -32.5611   -33.2044      NaN
 12891 217841.0              296.213             291.161    -32.5607   -33.2285      NaN
 12900 217993.1              296.465             291.414    -32.5527   -33.2303      NaN