File: i_data/46C/H2O-NH3_4.1943g.csv
H2O-NH3 9.5wt% Specific Heat - Large HF 24Oct22,,,,
Creation Date : 10/27/2022 11:02:41 AM,,,,
User : admin,,,,
,,,,
HeatFlow :,,,,
 Initial Mass : 4194.3 mg,,,,
 Molar Mass : 17 g/mol,,,,
,,,,
Index,Time(s),Furnace Temperature(K),Sample Temperature(K),HeatFlow(mW)
1,0,318.903,318.993,-1768.16
13,212.4,318.625,318.929,-931.201
25,424.8,318.384,318.872,-455.818
37,637.2,318.159,318.809,-221.865
49,849.6,317.935,318.738,-106.659
61,1062,317.694,318.655,-49.7502
73,1274.4,317.403,318.558,-21.27323
85,1486.8,317.029,318.44,-6.535276
97,1699.2,316.503,318.295,1.619945
109,1911.6,315.725,318.106,6.872798
121,2124,314.649,317.851,11.3373
133,2336.4,313.287,317.51,16.2234
145,2548.8,311.705,317.069,22.14597
157,2761.2,309.988,316.518,29.214
169,2973.6,308.198,315.861,37.2011
181,3186,306.375,315.101,45.7035
193,3398.4,304.54,314.244,54.3197
205,3610.8,302.705,313.306,62.7238
217,3823.2,300.883,312.288,70.7014
229,4035.6,299.082,311.203,78.0748
241,4248,297.307,310.057,84.7979
253,4460.4,295.559,308.859,90.817
265,4672.8,293.84,307.616,96.1216
277,4885.2,292.149,306.336,100.733
289,5097.6,290.483,305.026,104.716
301,5310,288.841,303.691,108.108
313,5522.4,287.224,302.334,110.946
325,5734.8,285.631,300.958,113.327
337,5947.2,284.061,299.566,115.302
349,6159.6,282.515,298.166,116.864
361,6372,280.991,296.757,118.057
373,6584.4,279.489,295.344,118.955
385,6796.8,278.005,293.93,119.56
397,7009.2,276.54,292.523,119.619
409,7221.6,275.094,291.125,119.265
421,7434,273.667,289.715,119.386
433,7646.4,272.256,288.305,119.613
445,7858.8,270.86,286.897,119.735
457,8071.2,269.479,285.492,119.657
469,8283.6,268.116,284.095,119.424
481,8496,266.77,282.703,119.161
493,8708.4,265.445,281.32,118.645
505,8920.8,264.138,279.946,118.01
517,9133.2,262.853,278.582,117.391
529,9345.6,261.588,277.229,116.643
541,9558,260.343,275.887,115.852
553,9770.4,259.115,274.557,114.952
565,9982.8,257.9,273.24,113.833
577,10195.2,256.7,271.936,112.656
589,10407.6,255.511,270.644,111.592
601,10620,254.333,269.363,110.567
613,10832.4,253.165,268.096,109.505
625,11044.8,252.009,266.838,108.526
637,11257.2,250.863,265.594,107.489
649,11469.6,249.728,264.361,106.496
661,11682,248.603,263.138,105.522
673,11894.4,247.489,261.928,104.482
685,12106.8,246.386,260.728,103.524
697,12319.2,245.289,259.539,102.63
709,12531.6,244.201,258.361,101.712
721,12744,243.122,257.192,100.586
733,12956.4,242.05,256.0348,99.6949
745,13168.8,240.987,254.887,98.8198
757,13381.2,239.933,253.748,97.65069
769,13593.6,238.887,252.619,96.9851
781,13806,237.851,251.5,96.0644
793,14018.4,236.823,250.391,95.435
805,14230.8,235.804,249.29,94.5276
817,14443.2,234.794,248.218,879.138
829,14655.6,233.796,247.162,744.418
841,14868,232.809,246.104,542.839
853,15080.4,231.833,245.048,384.379
865,15292.8,230.865,243.997,278.404
877,15505.2,229.902,242.951,211.861
889,15717.6,228.949,241.912,171.195
901,15930,228.002,240.882,145.429
913,16142.4,227.061,239.861,128.79
925,16354.8,226.127,238.847,117.461
937,16567.2,225.2,237.841,109.325
949,16779.6,224.28,236.843,102.742
961,16992,223.368,235.854,96.9597
973,17204.4,222.463,234.873,92.2306
985,17416.8,221.565,233.9,88.47574
997,17629.2,220.674,232.935,84.74279
1009,17841.6,219.789,231.977,81.9758
1021,18054,218.911,231.026,79.2983
1033,18266.4,218.041,230.084,76.67287
1045,18478.8,217.177,229.149,74.2039
1057,18691.2,216.322,228.221,72.09601
1069,18903.6,215.474,227.301,69.4476
1081,19116,214.633,226.388,67.39228
1093,19328.4,213.799,225.482,65.6351
1105,19540.8,212.971,224.584,63.65551
1117,19753.2,212.1519,223.694,62.1353
1129,19965.6,211.339,222.81,60.638
1141,20178,210.532,221.933,59.1002
1153,20390.4,209.73,221.064,57.8544
1165,20602.8,208.933,220.201,56.7688
1177,20815.2,208.142,219.344,55.5511
1189,21027.6,207.359,218.494,54.0565
1201,21240,206.582,217.651,52.8394
1213,21452.4,205.812,216.815,51.993
1225,21664.8,205.047,215.987,50.2424
1237,21877.2,204.289,215.164,49.4259
1249,22089.6,203.536,214.347,48.7655
1261,22302,202.789,213.535,47.6022
1273,22514.4,202.051,212.73,47.0527
1285,22726.8,201.318,211.932,46.16589
1297,22939.2,200.59,211.141,45.3588
1309,23151.6,199.869,210.355,44.3913
1321,23364,199.152,209.574,43.40753
1333,23576.4,198.44,208.801,42.7224
1345,23788.8,197.734,208.033,41.7471
1357,24001.2,197.034,207.271,41.2007
1369,24213.6,196.341,206.515,40.7147
1381,24426,195.655,205.766,40.1228
1393,24638.4,194.973,205.022,39.1038
1405,24850.8,194.298,204.284,38.5267
1417,25063.2,193.627,203.551,37.7145
1429,25275.6,192.96,202.825,37.448
1441,25488,192.298,202.104,36.79352
1453,25700.4,191.64,201.387,35.9047
1465,25912.8,190.99,200.677,35.32236
1477,26125.2,190.343,199.972,35.2767
1489,26337.6,189.701,199.272,34.5526
1501,26550,189.062,198.578,33.97
1513,26762.4,188.427,197.889,33.171
1525,26974.8,187.797,197.204,32.568
1537,27187.2,187.174,196.526,32.383
1549,27399.6,186.555,195.851,31.7203
1561,27612,185.941,195.183,31.0301
1573,27824.4,185.331,194.518,31.1075
1585,28036.8,184.724,193.858,30.33
1597,28249.2,184.12,193.203,30.1843
1609,28461.6,183.521,192.554,29.6238
1621,28674,182.924,191.908,29.1803
1633,28886.4,182.33,191.267,28.7029
1645,29098.8,181.741,190.629,28.3288
1657,29311.2,181.156,189.997,27.8686
1669,29523.6,180.576,189.369,27.8791
1681,29736,180,188.745,27.4596
1693,29948.4,179.428,188.1257,27.06213
1705,30160.8,178.86,187.509,26.5445
1717,30373.2,178.294,186.898,26.293
1729,30585.6,177.731,186.291,25.9712
1741,30798,177.171,185.687,25.6349
1753,31010.4,176.615,185.088,25.3405
1765,31222.8,176.064,184.492,24.7384
1777,31435.2,175.515,183.9,24.6376
1789,31647.6,174.966,183.311,24.468
1801,31860,174.42,182.727,24.3923
1813,32072.4,173.877,182.146,24.2432
1825,32284.8,173.338,181.567,23.6316
1837,32497.2,172.802,180.993,23.5785
1849,32709.6,172.269,180.422,23.4301
1861,32922,171.739,179.855,23.2169
1873,33134.4,171.211,179.291,23.0493
1885,33346.8,170.686,178.729,23.3837
1897,33559.2,170.168,178.171,23.0474
1909,33771.6,169.657,177.617,22.9915
1921,33984,169.151,177.066,22.7904
1933,34196.4,168.643,176.519,22.7702
1945,34408.8,168.133,175.976,22.1049
1957,34621.2,167.623,175.434,21.5749
1969,34833.6,167.118,174.896,21.4929
1981,35046,166.622,174.362,21.1854
1993,35258.4,166.133,173.83,20.99269
2005,35470.8,165.648,173.302,20.8935
2017,35683.2,165.168,172.778,20.59094
2029,35895.6,164.694,172.257,20.3431
2041,36108,164.224,171.74,20.335
2053,36320.4,163.753,171.227,20.4063
2065,36532.8,163.277,170.717,20.5017
2077,36745.2,162.8,170.209,20.0297
2089,36957.6,162.326,169.704,19.7457
2101,37170,161.858,169.202,19.4641
2113,37382.4,161.397,168.703,19.1352
2125,37594.8,160.941,168.208,19.047
2137,37807.2,160.492,167.715,18.95034
2149,38019.6,160.05,167.226,18.64301
2161,38232,159.61,166.742,18.3245
2173,38444.4,159.172,166.259,18.0382
2185,38656.8,158.738,165.781,18.1571
2197,38869.2,158.307,165.307,17.7337
2209,39081.6,157.877,164.836,17.5435
2221,39294,157.453,164.368,17.3871
2233,39506.4,157.031,163.903,17.3637
2245,39718.8,156.61,163.442,17.2231
2257,39931.2,156.184,162.983,16.96351
2269,40143.6,155.758,162.528,16.8402
2281,40356,155.335,162.074,17.0425
2293,40568.4,154.917,161.623,16.7414
2305,40780.8,154.502,161.175,16.7599
2317,40993.2,154.086,160.729,16.6516
2329,41205.6,153.672,160.286,16.2041
2341,41418,153.267,159.844,16.1779
2353,41630.4,152.872,159.407,15.8917
2365,41842.8,152.485,158.973,15.9366
2377,42055.2,152.105,158.542,15.654
2389,42267.6,151.725,158.115,15.1419
2401,42480,151.345,157.691,15.0201
2413,42692.4,150.966,157.271,14.7031
2425,42904.8,150.587,156.853,14.9088
2437,43117.2,150.21,156.439,14.8832
2449,43329.6,149.833,156.027,14.4978
2461,43542,149.46,155.618,14.5361
2473,43754.4,149.096,155.212,14.1584
2485,43966.8,148.74,154.809,14.2108
2497,44179.2,148.387,154.41,13.9602
2509,44391.6,148.036,154.014,13.892
2521,44604,147.689,153.62,13.7717
2533,44816.4,147.345,153.231,13.49939
2545,45028.8,147.002,152.845,13.4174
2557,45241.2,146.657,152.463,13.6072
2569,45453.6,146.315,152.082,13.3083
2581,45666,145.976,151.704,12.8803
2593,45878.4,145.643,151.329,12.7503
2605,46090.8,145.314,150.958,12.5712
2617,46303.2,144.988,150.59,12.45782
2629,46515.6,144.667,150.224,12.3589
2641,46728,144.347,149.862,12.3319
2653,46940.4,144.029,149.503,12.2506
2665,47152.8,143.711,149.147,12.0136
2677,47365.2,143.392,148.793,11.8258
2689,47577.6,143.069,148.442,11.7729
2701,47790,142.744,148.092,11.437
2713,48002.4,142.419,147.744,11.4439
2725,48214.8,142.096,147.398,11.4512
2737,48427.2,141.776,147.053,11.3822
2749,48639.6,141.454,146.711,11.1695
2761,48852,141.131,146.37,11.2797
2773,49064.4,140.807,146.03,11.2841
2785,49276.8,140.486,145.693,10.9948
2797,49489.2,140.164,145.354,10.9517
2809,49701.6,139.84,145.018,10.6241
2821,49914,139.515,144.682,10.334
2833,50126.4,139.189,144.348,10.174
2845,50338.8,138.857,144.013,10.4318
2857,50551.2,138.5203,143.679,10.6523
2869,50763.6,138.181,143.346,10.4771
2881,50976,137.84,143.011,10.5751
2893,51188.4,137.498,142.676,10.5557
2905,51400.8,137.155,142.341,10.5111
2917,51613.2,136.811,142.005,10.2735
2929,51825.6,136.468,141.669,10.3441
2941,52038,136.125,141.332,10.4489
2953,52250.4,135.786,140.996,10.4214
2965,52462.8,135.45,140.66,10.369
2977,52675.2,135.116,140.323,10.361
2989,52887.6,134.786,139.987,10.3871
3001,53100,134.462,139.651,10.2081
3013,53312.4,134.143,139.318,10.29226
3025,53524.8,133.825,138.984,10.1794
3037,53737.2,133.508,138.652,10.0887
3049,53949.6,133.192,138.321,10.0978
3061,54162,132.88,137.991,9.912966
3073,54374.4,132.573,137.663,9.779169
3085,54586.8,132.269,137.336,9.796509
3097,54799.2,131.967,137.011,9.555674
3109,55011.6,131.667,136.687,9.563147
3121,55224,131.372,136.366,9.523154
3133,55436.4,131.08,136.046,9.618274
3145,55648.8,130.787,135.728,9.453402
3157,55861.2,130.495,135.41,9.472727
3169,56073.6,130.203,135.096,9.333907
3181,56286,129.913,134.783,9.371509
3193,56498.4,129.626,134.472,9.186989
3205,56710.8,129.343,134.163,9.056954
3217,56923.2,129.065,133.855,9.058297
3229,57135.6,128.7936,133.55,9.077474
3241,57348,128.526,133.247,9.015997
3253,57560.4,128.26,132.947,8.949616
3265,57772.8,127.998,132.649,8.773813
3277,57985.2,127.738,132.352,8.632635
3289,58197.6,127.481,132.059,8.739235
3301,58410,127.227,131.768,8.478438
3313,58622.4,126.972,131.479,8.382331
3325,58834.8,126.711,131.193,8.304725
3337,59047.2,126.448,130.908,8.237178
3349,59259.6,126.181,130.624,8.156571
3361,59472,125.914,130.342,8.075937
3373,59684.4,125.649,130.061,7.971008
3385,59896.8,125.387,129.78,7.919809
3397,60109.2,125.124,129.501,7.772068
3409,60321.6,124.862,129.223,7.922328
3421,60534,124.601,128.946,7.781477
3433,60746.4,124.343,128.671,7.664301
3445,60958.8,124.087,128.397,7.634553
3457,61171.2,123.838,128.124,7.604442
3469,61383.6,123.594,127.853,7.703207
3481,61596,123.354,127.583,7.529879
3493,61808.4,123.117,127.316,7.372834
3505,62020.8,122.881,127.051,7.349578
3517,62233.2,122.648,126.787,7.298384
3529,62445.6,122.417,126.526,7.176776
3541,62658,122.188,126.267,7.029286
3553,62870.4,121.964,126.01,6.893585
3565,63082.8,121.742,125.755,6.85699
3577,63295.2,121.518,125.502,6.80004
3589,63507.6,121.294,125.251,6.730782
3601,63720,121.075,125.002,6.680363
3613,63932.4,120.856,124.756,6.62548
3625,64144.8,120.639,124.509,6.58115
3637,64357.2,120.426,124.267,6.56593
3649,64569.6,120.214,124.026,6.436595
3661,64782,120.004,123.786,6.322441
3673,64994.4,119.794,123.549,6.256373
3685,65206.8,119.585,123.312,6.164499
3697,65419.2,119.377,123.078,6.113829
3709,65631.6,119.17,122.847,6.07973
3721,65844,118.962,122.615,6.053807
3733,66056.4,118.755,122.386,5.950302
3745,66268.8,118.551,122.159,5.994363
3757,66481.2,118.347,121.933,5.88523
3769,66693.6,118.146,121.709,5.791471
3781,66906,117.946,121.485,5.71412
3793,67118.4,117.749,121.264,5.656898
3805,67330.8,117.554,121.045,5.588231
3817,67543.2,117.3617,120.827,5.558586
3829,67755.6,117.175,120.61,5.530836
3841,67968,116.996,120.396,5.834623
3853,68180.4,116.821,120.184,5.550498
3865,68392.8,116.65,119.975,5.356651
3877,68605.2,116.478,119.768,5.253476
3889,68817.6,116.308,119.563,5.184275
3901,69030,116.136,119.36,5.062961
3913,69242.4,115.962,119.16,5.02909
3925,69454.8,115.788,118.961,4.901282
3937,69667.2,115.613,118.764,4.821371
3949,69879.6,115.437,118.568,4.751475
3961,70092,115.258,118.373,4.712184
3973,70304.4,115.075,118.179,4.678036
3985,70516.8,114.888,117.985,4.623818
3997,70729.2,114.697,117.793,4.621537
4009,70941.6,114.503,117.599,4.58333
4021,71154,114.306,117.405,4.571584
4033,71366.4,114.107,117.211,4.582297
4045,71578.8,113.906,117.018,4.548636
4057,71791.2,113.707,116.823,4.49537
4069,72003.6,113.508,116.628,4.485294
4081,72216,113.311,116.433,4.437459
4093,72428.4,113.116,116.238,4.46091
4105,72640.8,112.921,116.043,4.45228
4117,72853.2,112.726,115.847,4.426023
4129,73065.6,112.532,115.652,4.391936
4141,73278,112.34,115.457,4.38856
4153,73490.4,112.151,115.262,4.365413
4165,73702.8,111.963,115.068,4.354786
4177,73915.2,111.775,114.873,4.344162
4189,74127.6,111.587,114.679,4.273318
4201,74340,111.397,114.485,4.228491
4213,74552.4,111.206,114.292,4.228176
4225,74764.8,111.016,114.099,4.249306
4237,74977.2,110.824,113.905,4.156509
4249,75189.6,110.629,113.712,4.134591
4261,75402,110.428,113.518,4.102937
4273,75614.4,110.215,113.323,4.109207
4285,75826.8,109.99,113.128,4.166605
4297,76039.2,109.766,112.929,4.186804
4309,76251.6,109.538,112.729,4.212295
4321,76464,109.3,112.526,4.236112
4333,76676.4,109.069,112.321,4.307787
4345,76888.8,108.859,112.116,4.309242
4357,77101.2,108.667,111.91,4.278193
4369,77313.6,108.466,111.705,4.270699
4381,77526,108.228,111.498,4.302027
4393,77738.4,107.986,111.29,4.344565
4405,77950.8,107.765,111.08,4.363254
4417,78163.2,107.5745,110.8702,4.345828
4429,78375.6,107.398,110.663,4.281846
4441,78588,107.223,110.457,4.239637
4453,78800.4,107.058,110.254,4.218348
4465,79012.8,106.912,110.053,4.091822
4477,79225.2,106.782,109.857,4.026436
4489,79437.6,106.644,109.665,3.983218
4501,79650,106.491,109.475,3.907951
4513,79862.4,106.337,109.288,3.829908
4525,80074.8,106.198,109.104,3.800425
4537,80287.2,106.057,108.923,3.709624
4549,80499.6,105.888,108.742,3.613554
4561,80712,105.701,108.562,3.590769
4573,80924.4,105.524,108.381,3.587161
4585,81136.8,105.366,108.202,3.546938
4597,81349.2,105.221,108.025,3.483819
4609,81561.6,105.081,107.849,3.484354
4621,81774,104.929,107.677,3.447141
4633,81986.4,104.76,107.503,3.385766
4645,82198.8,104.592,107.331,3.377541
4657,82411.2,104.444,107.159,3.367672
4669,82623.6,104.318,106.99,3.305535
4681,82836,104.192,106.824,3.250827
4693,83048.4,104.023,106.659,3.190839
4705,83260.8,103.824,106.491,3.199442
4717,83473.2,103.63,106.323,3.227915
4729,83685.6,103.46,106.153,3.206554
4741,83898,103.32,105.983,3.281317
4753,84110.4,103.19,105.817,3.215897
4765,84322.8,103.039,105.652,3.212968
4777,84535.2,102.876,105.487,3.14115
4789,84747.6,102.726,105.323,3.16162
4801,84960,102.601,105.1603,3.10595
4813,85172.4,102.492,105.001,3.034227
4825,85384.8,102.379,104.845,3.007872
4837,85597.2,102.255,104.691,2.909492
4849,85809.6,102.134,104.54,2.862067
4861,86022,102.03,104.391,2.827464
4873,86234.4,101.947,104.246,2.751726
4885,86446.8,101.867,104.105,2.649707
4897,86659.2,101.773,103.966,2.58649
4909,86871.6,101.674,103.832,2.515566
4921,87084,101.585,103.699,2.430081
4933,87296.4,101.517,103.57,2.394359
4945,87508.8,101.464,103.446,2.303181
4957,87721.2,101.419,103.327,2.181272
4969,87933.6,101.367,103.212,2.083651
4981,88146,101.295,103.101,1.989077
4993,88358.4,101.219,102.992,1.911358
5005,88570.8,101.151,102.885,1.882448
5017,88783.2,101.094,102.781,1.802139
5029,88995.6,101.035,102.681,1.73349
5041,89208,100.971,102.583,1.677879
5053,89420.4,100.908,102.486,1.602372
5065,89632.8,100.846,102.393,1.557729
5077,89845.2,100.783,102.301,1.520918
5089,90057.6,100.713,102.211,1.467187
5101,90270,100.643,102.122,1.430223
5113,90482.4,100.566,102.035,1.415687
5125,90694.8,100.487,101.948,1.371663
5137,90907.2,100.406,101.861,1.366345
5149,91119.6,100.32,101.775,1.370301
5161,91332,100.238,101.689,1.345381
5173,91544.4,100.169,101.603,1.333378
5185,91756.8,100.113,101.519,1.324997
5197,91969.2,100.062,101.437,1.246413
5209,92181.6,100.016,101.357,1.2286
5221,92394,99.9797,101.28,1.187093
5233,92606.4,99.954,101.206,1.136845
5245,92818.8,99.92858,101.135,1.080172
5257,93031.2,99.9034,101.068,1.009059
5269,93243.6,99.8789,101.002,0.955873
5281,93456,99.8551,100.94,0.877228
5293,93668.4,99.8312,100.879,0.803498
5305,93880.8,99.8058,100.822,0.755417
5317,94093.2,99.7735,100.766,0.694905
5329,94305.6,99.7416,100.712,0.660425
5341,94518,99.7176,100.659,0.610846
5353,94730.4,99.706,100.609,0.557523
5365,94942.8,99.709,100.561,0.511518
5377,95155.2,99.718,100.517,0.437983
5389,95367.6,99.7223,100.477,0.376114
5401,95580,99.7176,100.439,0.307493
5413,95792.4,99.7039,100.403,0.264987
5425,96004.8,99.6851,100.368,0.212051
5437,96217.2,99.6583,100.333,0.196003
5449,96429.6,99.6243,100.3,0.165508
5461,96642,99.58959,100.266,0.163876
5473,96854.4,99.55712,100.232,0.162914
5485,97066.8,99.5236,100.199,0.153552
5497,97279.2,99.4874,100.165,0.158302
5509,97491.6,99.44744,100.131,0.167088
5521,97704,99.40592,100.096,0.162092
5533,97916.4,99.3597,100.061,0.172232
5545,98128.8,99.30947,100.025,0.187426
5557,98341.2,99.25701,99.9886,0.213401
5569,98553.6,99.2029,99.9497,0.238387
5581,98766,99.1495,99.9108,0.250254
5593,98978.4,99.0974,99.871,0.267521
5605,99190.8,99.0448,99.8301,0.286151
5617,99403.2,98.9905,99.7886,0.302435
5629,99615.6,98.9347,99.7459,0.323456
5641,99828,98.9623,99.7033,0.345504
5653,100040.4,99.4228,99.6749,0.179543
5665,100252.8,100.031,99.6798,-0.240618
5677,100465.2,100.531,99.7186,-0.841383
5689,100677.6,100.931,99.7834,-1.444134
5701,100890,101.284,99.8681,-1.963333
5713,101102.4,101.628,99.9704,-2.387162
5725,101314.8,101.978,100.087,-2.787382
5737,101527.2,102.334,100.221,-3.144056
5749,101739.6,102.689,100.368,-3.475368
5761,101952,103.044,100.527,-3.79777
5773,102164.4,103.4,100.7,-4.079033
5785,102376.8,103.755,100.885,-4.357738
5797,102589.2,104.111,101.081,-4.626822
5809,102801.6,104.467,101.286,-4.877694
5821,103014,104.824,101.501,-5.105003
5833,103226.4,105.178,101.726,-5.312544
5845,103438.8,105.533,101.958,-5.51238
5857,103651.2,105.888,102.199,-5.709051
5869,103863.6,106.243,102.447,-5.893419
5881,104076,106.6,102.702,-6.04643
5893,104288.4,106.958,102.963,-6.226758
5905,104500.8,107.316,103.231,-6.373895
5917,104713.2,107.671,103.504,-6.523417
5929,104925.6,108.025,103.784,-6.661813
5941,105138,108.378,104.067,-6.782176
5953,105350.4,108.731,104.355,-6.907932
5965,105562.8,109.083,104.648,-7.009891
5977,105775.2,109.436,104.943,-7.119952
5989,105987.6,109.79,105.242,-7.211579
6001,106200,110.144,105.547,-7.317328
6013,106412.4,110.497,105.852,-7.403898
6025,106624.8,110.85,106.161,-7.491177
6037,106837.2,111.205,106.473,-7.577574
6049,107049.6,111.558,106.786,-7.645026
6061,107262,111.912,107.103,-7.731362
6073,107474.4,112.266,107.422,-7.784855
6085,107686.8,112.621,107.742,-7.863947
6097,107899.2,112.975,108.064,-7.923055
6109,108111.6,113.328,108.388,-7.994336
6121,108324,113.682,108.715,-8.044463
6133,108536.4,114.036,109.042,-8.108102
6145,108748.8,114.39,109.371,-8.170407
6157,108961.2,114.744,109.701,-8.208706
6169,109173.6,115.098,110.033,-8.268836
6181,109386,115.45,110.365,-8.30385
6193,109598.4,115.803,110.698,-8.361589
6205,109810.8,116.157,111.032,-8.400148
6217,110023.2,116.513,111.367,-8.460412
6229,110235.6,116.869,111.704,-8.503712
6241,110448,117.224,112.041,-8.552604
6253,110660.4,117.577,112.38,-8.598486
6265,110872.8,117.931,112.719,-8.637148
6277,111085.2,118.283,113.058,-8.698153
6289,111297.6,118.635,113.397,-8.720365
6301,111510,118.99,113.738,-8.780872
6313,111722.4,119.346,114.08,-8.813874
6325,111934.8,119.702,114.422,-8.885315
6337,112147.2,120.056,114.764,-8.925155
6349,112359.6,120.41,115.107,-8.992981
6361,112572,120.763,115.451,-9.050065
6373,112784.4,121.116,115.795,-9.112828
6385,112996.8,121.471,116.139,-9.179198
6397,113209.2,121.825,116.483,-9.248283
6409,113421.6,122.178,116.828,-9.335988
6421,113634,122.532,117.174,-9.420608
6433,113846.4,122.885,117.52,-9.529076
6445,114058.8,123.236,117.865,-9.631529
6457,114271.2,123.59,118.211,-9.764024
6469,114483.6,123.946,118.557,-9.906766
6481,114696,124.302,118.902,-10.0771
6493,114908.4,124.658,119.249,-10.2727
6505,115120.8,125.011,119.596,-10.47742
6517,115333.2,125.364,119.944,-10.72768
6529,115545.6,125.717,120.291,-10.9612
6541,115758,126.072,120.638,-11.2131
6553,115970.4,126.426,120.987,-11.41105
6565,116182.8,126.78,121.334,-11.5763
6577,116395.2,127.134,121.683,-11.6437
6589,116607.6,127.488,122.03,-11.6102
6601,116820,127.841,122.378,-11.5034
6613,117032.4,128.195,122.726,-11.3443
6625,117244.8,128.547,123.074,-11.21562
6637,117457.2,128.901,123.423,-11.1085
6649,117669.6,129.256,123.771,-11.0628
6661,117882,129.61,124.12,-11.0322
6673,118094.4,129.965,124.468,-11.0234
6685,118306.8,130.319,124.818,-11.0291
6697,118519.2,130.673,125.167,-11.0263
6709,118731.6,131.026,125.515,-11.0414
6721,118944,131.381,125.864,-11.0336
6733,119156.4,131.735,126.213,-11.0649
6745,119368.8,132.087,126.563,-11.0811
6757,119581.2,132.44,126.911,-11.0845
6769,119793.6,132.796,127.261,-11.1092
6781,120006,133.151,127.609,-11.1165
6793,120218.4,133.507,127.958,-11.1401
6805,120430.8,133.861,128.308,-11.1655
6817,120643.2,134.216,128.657,-11.184
6829,120855.6,134.57,129.007,-11.2121
6841,121068,134.924,129.357,-11.2195
6853,121280.4,135.277,129.708,-11.2536
6865,121492.8,135.631,130.057,-11.2627
6877,121705.2,135.984,130.407,-11.2804
6889,121917.6,136.337,130.757,-11.3009
6901,122130,136.691,131.107,-11.30718
6913,122342.4,137.046,131.457,-11.3292
6925,122554.8,137.398,131.806,-11.3393
6937,122767.2,137.752,132.157,-11.3618
6949,122979.6,138.106,132.507,-11.3735
6961,123192,138.462,132.856,-11.3809
6973,123404.4,138.818,133.207,-11.4062
6985,123616.8,139.171,133.557,-11.4149
6997,123829.2,139.522,133.907,-11.4335
7009,124041.6,139.873,134.258,-11.4459
7021,124254,140.226,134.607,-11.4613
7033,124466.4,140.581,134.956,-11.4566
7045,124678.8,140.935,135.304,-11.4689
7057,124891.2,141.288,135.655,-11.4853
7069,125103.6,141.645,136.005,-11.499
7081,125316,142.003,136.354,-11.5036
7093,125528.4,142.358,136.704,-11.5295
7105,125740.8,142.71,137.053,-11.5519
7117,125953.2,143.062,137.403,-11.569
7129,126165.6,143.416,137.753,-11.57645
7141,126378,143.772,138.102,-11.5876
7153,126590.4,144.133,138.453,-11.6124
7165,126802.8,144.492,138.804,-11.6309
7177,127015.2,144.847,139.157,-11.667
7189,127227.6,145.199,139.509,-11.6916
7201,127440,145.547,139.86,-11.7108
7213,127652.4,145.896,140.213,-11.7322
7225,127864.8,146.248,140.564,-11.74
7237,128077.2,146.598,140.915,-11.7321
7249,128289.6,146.954,141.266,-11.7413
7261,128502,147.314,141.618,-11.7544
7273,128714.4,147.676,141.97,-11.7566
7285,128926.8,148.03,142.324,-11.7743
7297,129139.2,148.378,142.677,-11.7931
7309,129351.6,148.727,143.029,-11.7846
7321,129564,149.076,143.381,-11.746
7333,129776.4,149.428,143.733,-11.70437
7345,129988.8,149.785,144.084,-11.6457
7357,130201.2,150.145,144.436,-11.5741
7369,130413.6,150.498,144.789,-11.4659
7381,130626,150.85,145.141,-11.318
7393,130838.4,151.205,145.494,-11.12685
7405,131050.8,151.559,145.846,-10.8775
7417,131263.2,151.911,146.198,-10.5329
7429,131475.6,152.266,146.55,-10.097
7441,131688,152.625,146.903,-9.545417
7453,131900.4,152.983,147.256,-8.845511
7465,132112.8,153.334,147.609,-7.939617
7477,132325.2,153.684,147.963,-6.807928
7489,132537.6,154.038,148.316,-5.366355
7501,132750,154.396,148.67,-3.533803
7513,132962.4,154.755,149.024,-1.227996
7525,133174.8,155.105,149.379,1.683582
7537,133387.2,155.453,149.733,5.358682
7549,133599.6,155.805,150.086,9.904644
7561,133812,156.162,150.441,15.3507
7573,134024.4,156.521,150.796,21.5135
7585,134236.8,156.879,151.152,27.93822
7597,134449.2,157.231,151.507,33.7894
7609,134661.6,157.582,151.863,37.9549
7621,134874,157.934,152.22,39.2956
7633,135086.4,158.285,152.575,37.1143
7645,135298.8,158.64,152.931,31.6743
7657,135511.2,158.998,153.285,24.0382
7669,135723.6,159.352,153.64,15.7524
7681,135936,159.701,153.994,8.136965
7693,136148.4,160.053,154.348,1.967214
7705,136360.8,160.41,154.702,-2.54479
7717,136573.2,160.77,155.055,-5.604171
7729,136785.6,161.126,155.409,-7.526755
7741,136998,161.476,155.764,-8.679528
7753,137210.4,161.828,156.117,-9.342605
7765,137422.8,162.184,156.472,-9.726658
7777,137635.2,162.539,156.826,-9.958138
7789,137847.6,162.889,157.181,-10.1052
7801,138060,163.238,157.535,-10.2095
7813,138272.4,163.5912,157.888,-10.3029
7825,138484.8,163.946,158.241,-10.3939
7837,138697.2,164.302,158.594,-10.471
7849,138909.6,164.657,158.948,-10.5116
7861,139122,165.01,159.302,-10.5444
7873,139334.4,165.365,159.655,-10.5624
7885,139546.8,165.723,160.009,-10.5802
7897,139759.2,166.081,160.364,-10.6333
7909,139971.6,166.439,160.719,-10.6632
7921,140184,166.79,161.074,-10.6711
7933,140396.4,167.138,161.429,-10.6848
7945,140608.8,167.49,161.784,-10.6964
7957,140821.2,167.843,162.138,-10.7151
7969,141033.6,168.199,162.493,-10.7348
7981,141246,168.554,162.847,-10.7374
7993,141458.4,168.908,163.201,-10.74717
8005,141670.8,169.262,163.555,-10.7382
8017,141883.2,169.614,163.911,-10.8012
8029,142095.6,169.968,164.265,-10.76101
8041,142308,170.323,164.62,-10.774
8053,142520.4,170.677,164.974,-10.8237
8065,142732.8,171.033,165.328,-10.8754
8077,142945.2,171.387,165.683,-10.9334
8089,143157.6,171.74,166.038,-10.9749
8101,143370,172.094,166.394,-11.0101
8113,143582.4,172.447,166.748,-11.057
8125,143794.8,172.801,167.1034,-11.0585
8137,144007.2,173.155,167.458,-11.14562
8149,144219.6,173.509,167.812,-11.2339
8161,144432,173.862,168.167,-11.3193
8173,144644.4,174.216,168.521,-11.4144
8185,144856.8,174.571,168.876,-11.58015
8197,145069.2,174.925,169.23,-11.8307
8209,145281.6,175.279,169.585,-12.1939
8221,145494,175.632,169.939,-12.5101
8233,145706.4,175.986,170.294,-12.5531
8245,145918.8,176.339,170.649,-12.37328
8257,146131.2,176.692,171.002,-10.3921
8269,146343.6,177.046,171.357,-10.2632
8281,146556,177.4,171.711,-10.5614
8293,146768.4,177.756,172.065,-10.7959
8305,146980.8,178.107,172.418,-11.0656
8317,147193.2,178.462,172.772,-11.1752
8329,147405.6,178.822,173.126,-11.2142
8341,147618,179.177,173.481,-11.3111
8353,147830.4,179.526,173.836,-11.3983
8365,148042.8,179.878,174.19,-11.5171
8377,148255.2,180.236,174.543,-11.6151
8389,148467.6,180.594,174.898,-11.9081
8401,148680,180.945,175.252,-12.6058
8413,148892.4,181.297,175.607,-14.81481
8425,149104.8,181.653,175.961,-25.5844
8437,149317.2,182.006,176.315,-53.5345
8449,149529.6,182.357,176.666,-94.3445
8461,149742,182.712,177.016,-134.109
8473,149954.4,183.069,177.365,-150.366
8485,150166.8,183.426,177.716,-149.174
8497,150379.2,183.779,178.066,-124.669
8509,150591.6,184.127,178.42,-60.0223
8521,150804,184.475,178.7759,-33.7692
8533,151016.4,184.832,179.13,-22.6929
8545,151228.8,185.192,179.486,-17.934
8557,151441.2,185.548,179.841,-15.9657
8569,151653.6,185.902,180.198,-15.1202
8581,151866,186.252,180.554,-14.7856
8593,152078.4,186.606,180.9103,-14.6625
8605,152290.8,186.961,181.265,-14.72308
8617,152503.2,187.306,181.62,-14.63904
8629,152715.6,187.656,181.974,-14.5949
8641,152928,188.016,182.328,-14.6925
8653,153140.4,188.379,182.682,-14.65167
8665,153352.8,188.729,183.037,-14.74596
8677,153565.2,189.073,183.39,-14.837
8689,153777.6,189.427,183.742,-14.7914
8701,153990,189.79,184.094,-14.7688
8713,154202.4,190.151,184.448,-14.7287
8725,154414.8,190.507,184.803,-14.8735
8737,154627.2,190.855,185.157,-14.8585
8749,154839.6,191.204,185.511,-14.864
8761,155052,191.559,185.865,-14.8495
8773,155264.4,191.919,186.218,-14.8399
8785,155476.8,192.276,186.573,-14.9284
8797,155689.2,192.63,186.927,-14.9718
8809,155901.6,192.982,187.283,-15.071
8821,156114,193.321,187.636,-15.0918
8833,156326.4,193.671,187.989,-15.0982
8845,156538.8,194.031,188.341,-15.1816
8857,156751.2,194.395,188.694,-15.2406
8869,156963.6,194.747,189.047,-15.15212
8881,157176,195.084,189.4,-15.1258
8893,157388.4,195.432,189.749,-15.2148
8905,157600.8,195.799,190.098,-15.2686
8917,157813.2,196.167,190.449,-15.2797
8929,158025.6,196.528,190.8,-15.2763
8941,158238,196.876,191.154,-15.32137
8953,158450.4,197.205,191.504,-15.4007
8965,158662.8,197.555,191.853,-15.4153
8977,158875.2,197.922,192.2,-15.4598
8989,159087.6,198.288,192.55,-15.4165
9001,159300,198.643,192.9,-15.34537
9013,159512.4,198.983,193.249,-15.483
9025,159724.8,199.34,193.599,-15.5955
9037,159937.2,199.706,193.949,-15.5646
9049,160149.6,200.061,194.299,-15.5948
9061,160362,200.39,194.649,-15.5525
9073,160574.4,200.741,194.996,-15.62346
9085,160786.8,201.108,195.343,-15.5551
9097,160999.2,201.476,195.69,-15.5702
9109,161211.6,201.825,196.039,-15.6543
9121,161424,202.175,196.387,-15.724
9133,161636.4,202.539,196.737,-15.7684
9145,161848.8,202.902,197.088,-15.9663
9157,162061.2,203.253,197.44,-16.0242
9169,162273.6,203.594,197.791,-16.0966
9181,162486,203.949,198.143,-16.1416
9193,162698.4,204.312,198.494,-16.1804
9205,162910.8,204.669,198.847,-16.2841
9217,163123.2,204.999,199.199,-16.3547
9229,163335.6,205.342,199.549,-16.3552
9241,163548,205.706,199.896,-16.3446
9253,163760.4,206.077,200.245,-16.4506
9265,163972.8,206.446,200.597,-16.50412
9277,164185.2,206.801,200.951,-16.6245
9289,164397.6,207.149,201.306,-16.6789
9301,164610,207.495,201.66,-16.81216
9313,164822.4,207.846,202.0138,-16.9053
9325,165034.8,208.201,202.367,-16.7814
9337,165247.2,208.553,202.721,-16.846
9349,165459.6,208.906,203.074,-16.8493
9361,165672,209.258,203.427,-16.7979
9373,165884.4,209.611,203.781,-17.00103
9385,166096.8,209.966,204.134,-17.07733
9397,166309.2,210.317,204.486,-17.0565
9409,166521.6,210.675,204.838,-17.0688
9421,166734,211.027,205.19,-17.1863
9433,166946.4,211.384,205.541,-17.3467
9445,167158.8,211.743,205.895,-17.1907
9457,167371.2,212.099,206.248,-17.4169
9469,167583.6,212.453,206.601,-17.48053
9481,167796,212.801,206.955,-17.6449
9493,168008.4,213.158,207.309,-17.5778
9505,168220.8,213.5,207.662,-17.4739
9517,168433.2,213.841,208.012,-17.5503
9529,168645.6,214.206,208.362,-17.5494
9541,168858,214.571,208.712,-17.5782
9553,169070.4,214.937,209.064,-17.7668
9565,169282.8,215.293,209.418,-17.9281
9577,169495.2,215.644,209.773,-17.9986
9589,169707.6,215.997,210.127,-18.1491
9601,169920,216.336,210.482,-18.3744
9613,170132.4,216.684,210.835,-18.3765
9625,170344.8,217.046,211.187,-18.3495
9637,170557.2,217.408,211.54,-18.4202
9649,170769.6,217.759,211.893,-18.4872
9661,170982,218.112,212.247,-18.57198
9673,171194.4,218.476,212.6,-18.6968
9685,171406.8,218.83,212.956,-18.7935
9697,171619.2,219.166,213.31,-18.9511
9709,171831.6,219.522,213.663,-19.0234
9721,172044,219.883,214.016,-19.0907
9733,172256.4,220.249,214.371,-19.1377
9745,172468.8,220.602,214.727,-19.2993
9757,172681.2,220.951,215.082,-19.4186
9769,172893.6,221.31,215.4392,-19.5229
9781,173106,221.67,215.796,-19.5929
9793,173318.4,222.025,216.156,-19.7299
9805,173530.8,222.368,216.515,-19.8819
9817,173743.2,222.719,216.873,-20.0205
9829,173955.6,223.082,217.231,-20.0553
9841,174168,223.444,217.592,-20.0812
9853,174380.4,223.7988,217.954,-20.2065
9865,174592.8,224.151,218.316,-20.3935
9877,174805.2,224.491,218.679,-20.4507
9889,175017.6,224.837,219.039,-20.4799
9901,175230,225.195,219.398,-20.709
9913,175442.4,225.557,219.759,-20.7145
9925,175654.8,225.914,220.12,-20.9431
9937,175867.2,226.266,220.481,-20.9129
9949,176079.6,226.617,220.843,-21.1212
9961,176292,226.967,221.204,-21.2157
9973,176504.4,227.322,221.564,-21.2549
9985,176716.8,227.677,221.925,-21.5503
9997,176929.2,228.033,222.285,-21.67639
10009,177141.6,228.387,222.646,-21.8603
10021,177354,228.742,223.007,-21.9762
10033,177566.4,229.098,223.369,-22.0887
10045,177778.8,229.449,223.73,-22.1709
10057,177991.2,229.803,224.092,-22.3837
10069,178203.6,230.159,224.452,-22.5369
10081,178416,230.512,224.814,-22.7153
10093,178628.4,230.866,225.175,-22.6771
10105,178840.8,231.221,225.536,-22.8289
10117,179053.2,231.577,225.898,-23.1014
10129,179265.6,231.929,226.26,-23.2815
10141,179478,232.284,226.622,-23.5288
10153,179690.4,232.637,226.984,-23.4523
10165,179902.8,232.992,227.346,-23.4055
10177,180115.2,233.344,227.708,-23.4848
10189,180327.6,233.698,228.07,-23.9075
10201,180540,234.049,228.431,-24.17914
10213,180752.4,234.403,228.793,-24.35501
10225,180964.8,234.758,229.154,-24.4658
10237,181177.2,235.115,229.516,-24.5199
10249,181389.6,235.47,229.878,-24.7384
10261,181602,235.825,230.24,-24.85727
10273,181814.4,236.178,230.602,-25.1173
10285,182026.8,236.532,230.963,-25.4049
10297,182239.2,236.886,231.326,-25.70554
10309,182451.6,237.235,231.687,-26.0155
10321,182664,237.587,232.049,-26.31047
10333,182876.4,237.943,232.41,-26.424
10345,183088.8,238.298,232.771,-26.6348
10357,183301.2,238.654,233.131,-26.8074
10369,183513.6,239.008,233.493,-27.0859
10381,183726,239.363,233.854,-27.3568
10393,183938.4,239.717,234.215,-27.6031
10405,184150.8,240.072,234.576,-27.8715
10417,184363.2,240.426,234.938,-28.2018
10429,184575.6,240.781,235.3,-28.363
10441,184788,241.134,235.662,-28.5488
10453,185000.4,241.488,236.023,-28.9384
10465,185212.8,241.839,236.384,-29.0477
10477,185425.2,242.192,236.7465,-29.3579
10489,185637.6,242.546,237.108,-29.8083
10501,185850,242.9,237.468,-30.0187
10513,186062.4,243.252,237.829,-30.382
10525,186274.8,243.606,238.19,-30.8697
10537,186487.2,243.96,238.551,-31.3132
10549,186699.6,244.314,238.912,-31.634
10561,186912,244.671,239.272,-31.8591
10573,187124.4,245.026,239.632,-31.9545
10585,187336.8,245.38,239.992,-32.6065
10597,187549.2,245.733,240.353,-33.0765
10609,187761.6,246.086,240.714,-33.52409
10621,187974,246.44,241.073,-33.8548
10633,188186.4,246.795,241.433,-34.2407
10645,188398.8,247.149,241.794,-34.7914
10657,188611.2,247.502,242.153,-35.3126
10669,188823.6,247.856,242.513,-35.8247
10681,189036,248.208,242.873,-36.3127
10693,189248.4,248.561,243.233,-36.889
10705,189460.8,248.914,243.591,-37.3877
10717,189673.2,249.267,243.95,-37.8051
10729,189885.6,249.619,244.308,-38.2896
10741,190098,249.973,244.666,-38.7691
10753,190310.4,250.327,245.024,-39.4692
10765,190522.8,250.681,245.382,-39.9226
10777,190735.2,251.035,245.74,-40.5414
10789,190947.6,251.39,246.097,-41.2926
10801,191160,251.744,246.454,-41.8226
10813,191372.4,252.1,246.811,-42.5159
10825,191584.8,252.453,247.168,-43.18731
10837,191797.2,252.809,247.524,-43.9746
10849,192009.6,253.164,247.882,-44.6682
10861,192222,253.521,248.24,-45.5924
10873,192434.4,253.876,248.598,-46.4658
10885,192646.8,254.231,248.956,-47.3605
10897,192859.2,254.584,249.313,-48.36675
10909,193071.6,254.938,249.672,-49.3571
10921,193284,255.291,250.031,-50.421
10933,193496.4,255.644,250.389,-51.5825
10945,193708.8,255.997,250.746,-52.5969
10957,193921.2,256.349,251.104,-53.8157
10969,194133.6,256.7,251.462,-54.97764
10981,194346,257.05,251.819,-56.176
10993,194558.4,257.403,252.175,-57.4015
11005,194770.8,257.758,252.531,-58.6985
11017,194983.2,258.118,252.887,-59.9989
11029,195195.6,258.473,253.243,-61.4896
11041,195408,258.822,253.599,-62.9557
11053,195620.4,259.175,253.954,-64.4637
11065,195832.8,259.529,254.31,-66.0555
11077,196045.2,259.883,254.665,-67.6942
11089,196257.6,260.237,255.02,-69.443
11101,196470,260.592,255.375,-71.2609
11113,196682.4,260.948,255.729,-73.3046
11125,196894.8,261.304,256.084,-75.364
11137,197107.2,261.6607,256.44,-77.5644
11149,197319.6,262.015,256.795,-79.8154
11161,197532,262.368,257.151,-82.1933
11173,197744.4,262.718,257.506,-84.7473
11185,197956.8,263.071,257.862,-87.3906
11197,198169.2,263.428,258.217,-90.092
11209,198381.6,263.786,258.572,-92.9043
11221,198594,264.141,258.928,-95.7638
11233,198806.4,264.494,259.283,-98.7903
11245,199018.8,264.847,259.64,-101.862
11257,199231.2,265.201,259.995,-104.906
11269,199443.6,265.556,260.351,-107.89
11281,199656,265.908,260.707,-110.808
11293,199868.4,266.262,261.064,-113.849
11305,200080.8,266.616,261.42,-116.718
11317,200293.2,266.969,261.776,-118.98
11329,200505.6,267.323,262.132,-120.762
11341,200718,267.676,262.487,-122.049
11353,200930.4,268.031,262.844,-122.422
11365,201142.8,268.384,263.2,-121.701
11377,201355.2,268.738,263.556,-120.498
11389,201567.6,269.092,263.912,-117.403
11401,201780,269.446,264.269,-109.825
11413,201992.4,269.799,264.626,-95.3964
11425,202204.8,270.153,264.983,-78.9044
11437,202417.2,270.508,265.34,-62.2703
11449,202629.6,270.862,265.699,-46.8312
11461,202842,271.216,266.057,-38.1929
11473,203054.4,271.569,266.416,-33.8507
11485,203266.8,271.923,266.773,-31.6616
11497,203479.2,272.278,267.131,-30.58792
11509,203691.6,272.63,267.49,-30.0118
11521,203904,272.985,267.848,-29.729
11533,204116.4,273.34,268.205,-29.5523
11545,204328.8,273.692,268.563,-29.5221
11557,204541.2,274.046,268.92,-29.4994
11569,204753.6,274.399,269.276,-29.4579
11581,204966,274.754,269.633,-29.4174
11593,205178.4,275.11,269.989,-29.3952
11605,205390.8,275.463,270.347,-29.3865
11617,205603.2,275.817,270.702,-29.3748
11629,205815.6,276.171,271.06,-29.40127
11641,206028,276.526,271.416,-29.4106
11653,206240.4,276.88,271.773,-29.4095
11665,206452.8,277.232,272.129,-29.4005
11677,206665.2,277.587,272.485,-29.394
11689,206877.6,277.941,272.841,-29.3854
11701,207090,278.295,273.197,-29.3708
11713,207302.4,278.649,273.553,-29.3519
11725,207514.8,279.002,273.91,-29.3671
11737,207727.2,279.353,274.266,-29.384
11749,207939.6,279.705,274.621,-29.3725
11761,208152,280.058,274.975,-29.37115
11773,208364.4,280.412,275.329,-29.332
11785,208576.8,280.768,275.683,-29.3261
11797,208789.2,281.124,276.038,-29.3048
11809,209001.6,281.479,276.391,-29.2753
11821,209214,281.833,276.747,-29.268
11833,209426.4,282.187,277.101,-29.2899
11845,209638.8,282.54,277.454,-29.2739
11857,209851.2,282.893,277.809,-29.267
11869,210063.6,283.248,278.163,-29.2623
11881,210276,283.603,278.517,-29.2646
11893,210488.4,283.958,278.871,-29.2814
11905,210700.8,284.314,279.225,-29.2812
11917,210913.2,284.669,279.58,-29.3021
11929,211125.6,285.025,279.935,-29.3121
11941,211338,285.379,280.29,-29.3453
11953,211550.4,285.731,280.646,-29.3243
11965,211762.8,286.083,281,-29.33903
11977,211975.2,286.437,281.356,-29.3527
11989,212187.6,286.792,281.711,-29.3602
12001,212400,287.147,282.065,-29.38029
12013,212612.4,287.498,282.421,-29.3997
12025,212824.8,287.849,282.775,-29.404
12037,213037.2,288.206,283.129,-29.3807
12049,213249.6,288.561,283.485,-29.3615
12061,213462,288.911,283.839,-29.3538
12073,213674.4,289.2631,284.193,-29.3383
12085,213886.8,289.62,284.546,-29.3247
12097,214099.2,289.976,284.901,-29.2992
12109,214311.6,290.327,285.254,-29.2914
12121,214524,290.68,285.608,-29.2806
12133,214736.4,291.036,285.961,-29.2727
12145,214948.8,291.392,286.315,-29.2403
12157,215161.2,291.745,286.669,-29.23461
12169,215373.6,292.097,287.023,-29.2279
12181,215586,292.453,287.376,-29.2204
12193,215798.4,292.808,287.73,-29.22125
12205,216010.8,293.164,288.083,-29.2333
12217,216223.2,293.518,288.438,-29.2288
12229,216435.6,293.866,288.792,-29.2411
12241,216648,294.219,289.145,-29.2296
12253,216860.4,294.576,289.497,-29.2088
12265,217072.8,294.931,289.85,-29.1909
12277,217285.2,295.281,290.203,-29.1771
12289,217497.6,295.635,290.556,-29.1652
12301,217710,295.992,290.9072,-29.1375
12313,217922.4,296.348,291.26,-29.1037
12325,218134.8,296.697,291.612,-29.0711
12337,218347.2,297.048,291.964,-29.0481
12349,218559.6,297.406,292.314,-29.0109
12361,218772,297.765,292.664,-28.9936
12373,218984.4,298.121,293.015,-28.9739
12385,219196.8,298.475,293.367,-28.9831
12397,219409.2,298.829,293.717,-28.9743
12409,219621.6,299.182,294.067,-28.9514
12421,219834,299.535,294.415,-28.9192
12433,220046.4,299.888,294.765,-28.8813
12445,220258.8,300.244,295.116,-28.8706
12457,220471.2,300.594,295.47,-28.9316
12469,220683.6,300.947,295.824,-29.0531
12481,220896,301.303,296.181,-29.18009
12493,221108.4,301.657,296.538,-29.2805
12505,221320.8,302.012,296.894,-29.3619
12517,221533.2,302.365,297.251,-29.416
12529,221745.6,302.712,297.606,-29.4237
12541,221958,303.067,297.959,-29.4034
12553,222170.4,303.425,298.314,-29.3726
12565,222382.8,303.776,298.667,-29.3306
12577,222595.2,304.133,299.02,-29.3037
12589,222807.6,304.491,299.375,-29.2776
12601,223020,304.839,299.728,-29.2753
12613,223232.4,305.187,300.081,-29.2437
12625,223444.8,305.542,300.433,-29.2059
12637,223657.2,305.902,300.784,-29.1619
12649,223869.6,306.257,301.136,-29.1425
12661,224082,306.613,301.49,-29.1308
12673,224294.4,306.965,301.841,-29.1358
12685,224506.8,307.318,302.193,-29.1416
12697,224719.2,307.673,302.547,-29.1706
12709,224931.6,308.019,302.897,-29.14804
12721,225144,308.372,303.247,-29.10661
12733,225356.4,308.732,303.598,-29.0516
12745,225568.8,309.084,303.947,-29.02259
12757,225781.2,309.4322,304.298,-29.0102
12769,225993.6,309.79,304.647,-28.9865
12781,226206,310.152,304.997,-28.9576
12793,226418.4,310.511,305.349,-28.9677
12805,226630.8,310.867,305.702,-29.0352
12817,226843.2,311.212,306.055,-29.1373
12829,227055.6,311.557,306.407,-29.1724
12841,227268,311.914,306.757,-29.1399
12853,227480.4,312.275,307.108,-29.105
12865,227692.8,312.626,307.46,-29.1017
12877,227905.2,312.972,307.81,-29.1071
12889,228117.6,313.329,308.16,-29.07021
12901,228330,313.692,308.51,-29.0218
12913,228542.4,314.053,308.861,-29.0194
12925,228754.8,314.408,309.215,-29.066
12937,228967.2,314.753,309.568,-29.13661
12949,229179.6,315.107,309.92,-29.1709
12961,229392,315.464,310.271,-29.184
12973,229604.4,315.808,310.624,-29.2011
12985,229816.8,316.154,310.975,-29.1943
12997,230029.2,316.514,311.324,-29.1105
13009,230241.6,316.873,311.672,-29.0383
13021,230454,317.223,312.022,-29.0122
13033,230666.4,317.58,312.372,-28.9892
13045,230878.8,317.937,312.722,-28.9743
13057,231091.2,318.287,313.072,-28.995
13069,231303.6,318.64,313.421,-28.9804
13081,231516,319,313.771,-28.9563
13093,231728.4,319.216,314.119,-28.96338
13105,231940.8,319.186,314.444,-28.7328
13117,232153.2,319.167,314.738,-27.8575
13129,232365.6,319.1659,315.008,-26.395
13141,232578,319.168,315.254,-24.6209
13153,232790.4,319.154,315.478,-22.7244
13165,233002.8,319.152,315.681,-20.8183
13177,233215.2,319.157,315.867,-18.9997
13189,233427.6,319.166,316.038,-17.381
13201,233640,319.169,316.195,-15.8546
13213,233852.4,319.169,316.34,-14.4705
13225,234064.8,319.166,316.474,-13.2225
13237,234277.2,319.165,316.597,-12.0633
13249,234489.6,319.16,316.708,-11.0087
13261,234702,319.16,316.81,-10.0124
13273,234914.4,319.149,316.902,-9.115329
13285,235126.8,319.143,316.986,-8.220432
13297,235339.2,319.146,317.06,-7.380572
13309,235551.6,319.152,317.13,-6.630492
13321,235764,319.142,317.192,-5.958356
13333,235976.4,319.141,317.246,-5.321261
13345,236188.8,319.148,317.296,-4.72965
13357,236401.2,319.145,317.342,-4.209337
13369,236613.6,319.138,317.382,-3.727737
13381,236826,319.142,317.418,-3.278418
13393,237038.4,319.152,317.451,-2.883654
13405,237250.8,319.159,317.484,-2.565044
13417,237463.2,319.162,317.515,-2.318194
13429,237675.6,319.157,317.544,-2.116765
13441,237888,319.1551,317.569,-1.915182
13453,238100.4,319.157,317.593,-1.720865
13465,238312.8,319.15,317.615,-1.525038
13477,238525.2,319.141,317.633,-1.320614
13489,238737.6,319.146,317.6486,-1.093747
13501,238950,319.154,317.663,-0.902501
13513,239162.4,319.157,317.679,-0.759361
13525,239374.8,319.16,317.693,-0.67243
13537,239587.2,319.151,317.707,-0.589552
13549,239799.6,319.139,317.717,-0.476971
13561,240012,319.142,317.725,-0.332156
13573,240224.4,319.1505,317.734,-0.192238
13585,240436.8,319.15,317.742,-0.092827
13597,240649.2,319.155,317.749,-0.026498
13609,240861.6,319.152,317.756,0.009451
13621,241074,319.148,317.762,0.059746
13633,241286.4,319.151,317.768,0.12253
13645,241498.8,319.156,317.775,0.168098
13657,241711.2,319.142,317.78,0.214847
13669,241923.6,319.138,317.782,0.284212
13681,242136,319.143,317.782,0.380918
13693,242348.4,319.155,317.785,0.452139
13705,242560.8,319.163,317.788,0.465977
13717,242773.2,319.159,317.794,0.432558
13729,242985.6,319.156,317.798,0.392896
13741,243198,319.148,317.802,0.387832
13753,243410.4,319.144,317.804,0.420741
13765,243622.8,319.149,317.806,0.471034
13777,243835.2,319.156,317.808,0.506137
13789,244047.6,319.159,317.812,0.505798
13801,244260,319.156,317.815,0.476094
13813,244472.4,319.138,317.818,0.481493
13825,244684.8,319.136,317.817,0.548326
13837,244897.2,319.143,317.816,0.630684
13849,245109.6,319.153,317.816,0.696166
13861,245322,319.156,317.817,0.70241
13873,245534.4,319.148,317.819,0.683339
13885,245746.8,319.146,317.819,0.680976
13897,245959.2,319.152,317.819,0.69549
13909,246171.6,319.154,317.82,0.695152
13921,246384,319.145,317.82,0.69397
13933,246596.4,319.147,317.821,0.716416
13945,246808.8,319.153,317.82,0.734137
13957,247021.2,319.144,317.821,0.746456
13969,247233.6,319.134,317.82,0.768228
13981,247446,319.141,317.816,0.842825
13993,247658.4,319.151,317.815,0.902908
14005,247870.8,319.155,317.815,0.906283
14017,248083.2,319.159,317.815,0.858353
14029,248295.6,319.149,317.816,0.801646
14041,248508,319.133,317.814,0.772282
14053,248720.4,319.134,317.81,0.830846
14065,248932.8,319.146,317.806,0.920634
14077,249145.2,319.151,317.805,0.95962
14089,249357.6,319.147,317.803,0.937681
14101,249570,319.15,317.802,0.928063
14113,249782.4,319.157,317.802,0.91203
14125,249994.8,319.16,317.802,0.871694
14137,250207.2,319.148,317.802,0.800473
14149,250419.6,319.144,317.801,0.792541
14161,250632,319.152,317.799,0.812963
14173,250844.4,319.16,317.8,0.823427
14185,251056.8,319.15,317.799,0.784441
14197,251269.2,319.152,317.8,0.775665
14209,251481.6,319.155,317.801,0.7598
14221,251694,319.162,317.803,0.728408
14233,251906.4,319.149,317.804,0.693641
14245,252118.8,319.145,317.804,0.685202
14257,252331.2,319.149,317.804,0.697522
14269,252543.6,319.157,317.805,0.714737
14281,252756,319.152,317.807,0.719461
14293,252968.4,319.143,317.807,0.712542
14305,253180.8,319.146,317.806,0.734819
14317,253393.2,319.154,317.806,0.760979
14329,253605.6,319.157,317.807,0.757771
14341,253818,319.149,317.808,0.742582
14353,254030.4,319.15,317.808,0.728743
14365,254242.8,319.155,317.809,0.72773
14377,254455.2,319.16,317.811,0.69465
14389,254667.6,319.151,317.813,0.670853
14401,254880,319.148,317.814,0.665114
14413,255092.4,319.152,317.814,0.669502
14425,255304.8,319.159,317.816,0.6587
14437,255517.2,319.155,317.818,0.635071
14449,255729.6,319.155,317.821,0.614649
14461,255942,319.159,317.824,0.589333
14473,256154.4,319.167,317.828,0.572792
14485,256366.8,319.17,317.834,0.50984
14497,256579.2,319.156,317.839,0.421068
14509,256791.6,319.148,317.843,0.386808
14521,257004,319.153,317.846,0.428323
14533,257216.4,319.157,317.85,0.477769
14545,257428.8,319.159,317.8533,0.492788
14557,257641.2,319.159,317.858,0.487217
14569,257853.6,319.15,317.862,0.454138
14581,258066,319.138,317.864,0.457007
14593,258278.4,319.144,317.864,0.540881
14605,258490.8,319.151,317.864,0.619186
14617,258703.2,319.15,317.867,0.652094
14629,258915.6,319.142,317.868,0.654456
14641,259128,319.147,317.867,0.69614
14653,259340.4,319.153,317.868,0.732592
14665,259552.8,319.158,317.87,0.75048
14677,259765.2,319.152,317.871,0.713014
14689,259977.6,319.151,317.873,0.697487
14701,260190,319.153,317.875,0.686517
14713,260402.4,319.161,317.876,0.695461
14725,260614.8,319.158,317.879,0.663564
14737,260827.2,319.156,317.882,0.629135
14749,261039.6,319.159,317.886,0.609051
14761,261252,319.163,317.89,0.579854
14773,261464.4,319.161,317.894,0.54357
14785,261676.8,319.158,317.899,0.508972
14797,261889.2,319.159,317.902,0.495302
14809,262101.6,319.163,317.907,0.476062
14821,262314,319.159,317.912,0.450578
14833,262526.4,319.15,317.916,0.434039
14845,262738.8,319.15,317.919,0.46627
14857,262951.2,319.154,317.922,0.503395
14869,263163.6,319.161,317.926,0.532588
14881,263376,319.162,317.931,0.53343
14893,263588.4,319.162,317.936,0.502377
14905,263800.8,319.163,317.941,0.458837
14917,264013.2,319.161,317.947,0.42846
14929,264225.6,319.158,317.952,0.402977
14941,264438,319.158,317.957,0.388801
14953,264650.4,319.161,317.963,0.401287
14956,264703.5,319.159,317.964,0.400274