File: i_data/46C/H2O-NH3_3.7107g.csv
H2O-NH3 20wt% Specific Heat - Large HF,,,,
Creation Date : 9/29/2022 1:10:54 PM,,,,
User : admin,,,,
,,,,
HeatFlow :,,,,
 Initial Mass : 3710.7 mg,,,,
 Molar Mass : 17 g/mol,,,,
,,,,
Index,Time(s),Furnace Temperature(K),Sample Temperature(K),HeatFlow(mW)
1,0,298.833,298.867,1798.27
13,212.4,298.836,298.871,85.1145
25,424.8,298.838,298.873,39.7686
37,637.2,298.839,298.874,17.84614
49,849.6,298.826,298.874,7.311184
61,1062,298.79,298.872,2.25894
73,1274.4,298.707,298.865,-0.088664
85,1486.8,298.556,298.849,-1.031741
97,1699.2,298.313,298.818,-1.147537
109,1911.6,297.945,298.764,-0.650551
121,2124,297.396,298.676,0.431908
133,2336.4,296.617,298.54,2.175609
145,2548.8,295.592,298.339,4.815866
157,2761.2,294.335,298.055,8.602035
169,2973.6,292.889,297.68,13.4759
181,3186,291.284,297.206,19.3382
193,3398.4,289.484,296.626,25.9772
205,3610.8,287.432,295.929,33.31831
217,3823.2,285.113,295.1,41.3771
229,4035.6,282.512,294.132,50.2652
241,4248,279.581,293.011,59.9979
253,4460.4,276.445,291.735,70.2906
265,4672.8,273.3,290.294,81.263
277,4885.2,270.208,288.708,92.6947
289,5097.6,267.199,287.001,103.742
301,5310,264.292,285.191,113.843
313,5522.4,261.475,283.298,122.723
325,5734.8,258.782,281.34,130.25
337,5947.2,256.219,279.334,136.391
349,6159.6,253.713,277.291,141.2
361,6372,251.257,275.219,144.851
373,6584.4,248.886,273.129,147.54
385,6796.8,246.555,271.025,149.391
397,7009.2,244.283,268.914,150.537
409,7221.6,242.086,266.801,151.03
421,7434,239.994,264.696,151.138
433,7646.4,237.936,262.602,150.69
445,7858.8,235.937,260.521,149.815
457,8071.2,234.011,258.458,148.568
469,8283.6,232.156,256.419,146.923
481,8496,230.376,254.4051,144.967
493,8708.4,228.671,252.421,142.671
505,8920.8,227.032,250.47,140.28
517,9133.2,225.465,248.555,137.592
529,9345.6,223.96,246.677,134.449
541,9558,222.518,244.838,131.518
553,9770.4,221.132,243.04,128.895
565,9982.8,219.802,241.283,125.591
577,10195.2,218.521,239.568,121.576
589,10407.6,217.286,237.893,118.077
601,10620,216.097,236.261,114.575
613,10832.4,214.949,234.67,111.445
625,11044.8,213.855,233.122,108.508
637,11257.2,212.819,231.615,105.192
649,11469.6,211.836,230.152,101.401
661,11682,210.899,228.731,97.94275
673,11894.4,209.996,227.355,94.8659
685,12106.8,209.13,226.02,91.1975
697,12319.2,208.298,224.725,87.8911
709,12531.6,207.492,223.471,86.2735
721,12744,206.707,222.253,82.6079
733,12956.4,205.938,221.073,150.569
745,13168.8,205.18,219.933,255.137
757,13381.2,204.431,218.824,224.582
769,13593.6,203.691,217.743,163.894
781,13806,202.957,216.689,127.949
793,14018.4,202.23,215.66,106.879
805,14230.8,201.508,214.656,94.1437
817,14443.2,200.79,213.674,86.0375
829,14655.6,200.076,212.712,79.7683
841,14868,199.369,211.772,76.2
853,15080.4,198.668,210.85,72.8893
865,15292.8,197.974,209.946,69.0622
877,15505.2,197.291,209.06,66.2083
889,15717.6,196.617,208.191,64.0677
901,15930,195.952,207.338,61.5871
913,16142.4,195.292,206.499,59.5072
925,16354.8,194.633,205.676,57.4546
937,16567.2,193.97,204.866,55.4613
949,16779.6,193.299,204.067,53.7962
961,16992,192.625,203.277,52.273
973,17204.4,191.951,202.499,50.7853
985,17416.8,191.2796,201.729,50.1562
997,17629.2,190.62,200.968,48.7066
1009,17841.6,189.978,200.215,47.587
1021,18054,189.353,199.472,46.5171
1033,18266.4,188.732,198.74,45.2889
1045,18478.8,188.116,198.017,44.1342
1057,18691.2,187.508,197.301,43.2387
1069,18903.6,186.901,196.595,42.5613
1081,19116,186.293,195.897,41.7315
1093,19328.4,185.692,195.207,40.9062
1105,19540.8,185.1015,194.525,39.5997
1117,19753.2,184.52,193.849,39.0632
1129,19965.6,183.944,193.182,38.2659
1141,20178,183.375,192.523,37.4712
1153,20390.4,182.81,191.871,36.1805
1165,20602.8,182.25,191.225,35.1027
1177,20815.2,181.692,190.587,34.8023
1189,21027.6,181.138,189.955,34.04097
1201,21240,180.587,189.33,33.2614
1213,21452.4,180.041,188.711,33.00862
1225,21664.8,179.496,188.097,32.5693
1237,21877.2,178.955,187.489,32.12647
1249,22089.6,178.416,186.887,31.4726
1261,22302,177.88,186.291,30.8701
1273,22514.4,177.349,185.699,30.2073
1285,22726.8,176.821,185.112,29.9346
1297,22939.2,176.297,184.529,29.6301
1309,23151.6,175.777,183.952,28.9801
1321,23364,175.259,183.38,28.4915
1333,23576.4,174.746,182.811,28.364
1345,23788.8,174.235,182.249,28.2436
1357,24001.2,173.726,181.689,27.657
1369,24213.6,173.22,181.134,27.1056
1381,24426,172.718,180.584,26.7042
1393,24638.4,172.219,180.036,26.12931
1405,24850.8,171.722,179.494,26.3396
1417,25063.2,171.23,178.955,25.9842
1429,25275.6,170.74,178.42,25.5049
1441,25488,170.254,177.888,25.1855
1453,25700.4,169.771,177.36,24.9592
1465,25912.8,169.295,176.837,24.5528
1477,26125.2,168.822,176.317,24.1329
1489,26337.6,168.353,175.8,23.94899
1501,26550,167.885,175.288,23.7931
1513,26762.4,167.42,174.779,23.5047
1525,26974.8,166.959,174.274,23.0658
1537,27187.2,166.499,173.773,23.2596
1549,27399.6,166.042,173.275,22.9618
1561,27612,165.588,172.78,22.3819
1573,27824.4,165.14,172.288,22.1789
1585,28036.8,164.695,171.8,21.8397
1597,28249.2,164.252,171.316,21.68401
1609,28461.6,163.81,170.835,21.2406
1621,28674,163.37,170.356,21.4071
1633,28886.4,162.932,169.881,21.0336
1645,29098.8,162.496,169.408,20.8092
1657,29311.2,162.063,168.939,20.5056
1669,29523.6,161.633,168.474,20.3786
1681,29736,161.206,168.011,20.2342
1693,29948.4,160.782,167.55,19.8054
1705,30160.8,160.361,167.093,19.4233
1717,30373.2,159.943,166.638,19.2753
1729,30585.6,159.529,166.186,18.6956
1741,30798,159.119,165.737,19.0546
1753,31010.4,158.709,165.291,19.13822
1765,31222.8,158.302,164.849,18.7426
1777,31435.2,157.899,164.409,18.742
1789,31647.6,157.498,163.972,18.6878
1801,31860,157.099,163.537,18.47232
1813,32072.4,156.687,163.106,18.336
1825,32284.8,156.267,162.675,18.2265
1837,32497.2,155.85,162.245,17.8395
1849,32709.6,155.447,161.817,17.8964
1861,32922,155.057,161.392,17.6706
1873,33134.4,154.675,160.969,17.4418
1885,33346.8,154.297,160.55,17.36286
1897,33559.2,153.924,160.133,16.8646
1909,33771.6,153.553,159.72,16.5646
1921,33984,153.184,159.31,16.3591
1933,34196.4,152.817,158.904,16.36679
1945,34408.8,152.452,158.5,16.3953
1957,34621.2,152.089,158.099,16.2831
1969,34833.6,151.727,157.701,16.0417
1981,35046,151.367,157.305,15.8555
1993,35258.4,151.009,156.913,15.44041
2005,35470.8,150.65,156.522,15.2793
2017,35683.2,150.292,156.135,15.496
2029,35895.6,149.935,155.749,15.4138
2041,36108,149.581,155.365,15.2827
2053,36320.4,149.228,154.984,15.0345
2065,36532.8,148.878,154.606,14.7769
2077,36745.2,148.529,154.228,14.7292
2089,36957.6,148.1827,153.853,14.6325
2101,37170,147.839,153.481,14.5183
2113,37382.4,147.492,153.111,14.3768
2125,37594.8,147.146,152.742,14.479
2137,37807.2,146.802,152.375,14.36894
2149,38019.6,146.457,152.01,14.0921
2161,38232,146.109,151.646,13.8424
2173,38444.4,145.764,151.283,13.9596
2185,38656.8,145.422,150.922,13.8886
2197,38869.2,145.083,150.562,13.6224
2209,39081.6,144.747,150.205,13.7075
2221,39294,144.415,149.849,13.64
2233,39506.4,144.088,149.494,13.4912
2245,39718.8,143.765,149.142,13.1297
2257,39931.2,143.445,148.792,13.2112
2269,40143.6,143.127,148.445,13.0638
2281,40356,142.811,148.099,12.7341
2293,40568.4,142.495,147.756,12.7097
2305,40780.8,142.18,147.414,12.5036
2317,40993.2,141.864,147.074,12.5779
2329,41205.6,141.55,146.737,12.5572
2341,41418,141.24,146.401,12.39278
2353,41630.4,140.934,146.066,12.3774
2365,41842.8,140.631,145.734,12.1894
2377,42055.2,140.329,145.404,11.99326
2389,42267.6,140.029,145.077,11.8404
2401,42480,139.731,144.75,11.7992
2413,42692.4,139.436,144.426,11.8583
2425,42904.8,139.147,144.104,11.8408
2437,43117.2,138.86,143.785,11.61998
2449,43329.6,138.578,143.468,11.3088
2461,43542,138.298,143.154,11.4997
2473,43754.4,138.019,142.841,11.2388
2485,43966.8,137.739,142.532,11.1817
2497,44179.2,137.462,142.225,11.1273
2509,44391.6,137.185,141.918,11.093
2521,44604,136.909,141.614,10.8654
2533,44816.4,136.636,141.313,10.8945
2545,45028.8,136.363,141.013,10.84855
2557,45241.2,136.091,140.715,10.673
2569,45453.6,135.823,140.419,10.5259
2581,45666,135.558,140.125,10.4816
2593,45878.4,135.288,139.833,10.2884
2605,46090.8,135.021,139.5418,10.1797
2617,46303.2,134.757,139.253,10.1609
2629,46515.6,134.495,138.966,10.0872
2641,46728,134.235,138.68,10.0046
2653,46940.4,133.977,138.396,9.930762
2665,47152.8,133.72,138.1146,9.922903
2677,47365.2,133.464,137.835,9.865027
2689,47577.6,133.209,137.556,9.768767
2701,47790,132.954,137.28,9.640161
2713,48002.4,132.705,137.005,9.532909
2725,48214.8,132.456,136.731,9.532495
2737,48427.2,132.207,136.459,9.397804
2749,48639.6,131.962,136.189,9.257914
2761,48852,131.72,135.921,9.21781
2773,49064.4,131.479,135.654,9.091639
2785,49276.8,131.2414,135.388,9.040528
2797,49489.2,131.007,135.126,9.024654
2809,49701.6,130.775,134.865,8.921863
2821,49914,130.542,134.606,8.928994
2833,50126.4,130.312,134.349,8.837334
2845,50338.8,130.085,134.094,8.723737
2857,50551.2,129.858,133.84,8.738418
2869,50763.6,129.634,133.589,8.585444
2881,50976,129.41,133.339,8.495969
2893,51188.4,129.188,133.091,8.417701
2905,51400.8,128.964,132.844,8.331408
2917,51613.2,128.743,132.599,8.232701
2929,51825.6,128.522,132.357,8.228621
2941,52038,128.301,132.115,8.051477
2953,52250.4,128.08,131.875,7.960432
2965,52462.8,127.856,131.635,7.971558
2977,52675.2,127.634,131.397,7.960483
2989,52887.6,127.414,131.16,7.863425
3001,53100,127.198,130.924,7.837705
3013,53312.4,126.984,130.69,7.76212
3025,53524.8,126.772,130.457,7.748075
3037,53737.2,126.563,130.226,7.577789
3049,53949.6,126.355,129.996,7.526764
3061,54162,126.147,129.767,7.47832
3073,54374.4,125.941,129.539,7.519179
3085,54586.8,125.738,129.314,7.567733
3097,54799.2,125.535,129.089,7.430951
3109,55011.6,125.334,128.867,7.297814
3121,55224,125.136,128.646,7.290288
3133,55436.4,124.942,128.427,7.215999
3145,55648.8,124.75,128.209,7.121926
3157,55861.2,124.559,127.993,6.978922
3169,56073.6,124.369,127.778,6.943886
3181,56286,124.181,127.566,7.011372
3193,56498.4,123.994,127.354,6.902735
3205,56710.8,123.809,127.145,6.756846
3217,56923.2,123.623,126.936,6.730582
3229,57135.6,123.438,126.73,6.594019
3241,57348,123.25,126.525,6.567079
3253,57560.4,123.0642,126.321,6.447736
3265,57772.8,122.88,126.118,6.45178
3277,57985.2,122.698,125.917,6.385892
3289,58197.6,122.513,125.717,6.410748
3301,58410,122.329,125.517,6.393057
3313,58622.4,122.146,125.319,6.336864
3325,58834.8,121.965,125.122,6.280468
3337,59047.2,121.783,124.925,6.119309
3349,59259.6,121.607,124.73,6.084425
3361,59472,121.433,124.537,6.056182
3373,59684.4,121.26,124.344,6.163337
3385,59896.8,121.085,124.152,6.092395
3397,60109.2,120.91,123.962,6.001989
3409,60321.6,120.739,123.773,5.927206
3421,60534,120.571,123.585,5.844818
3433,60746.4,120.405,123.398,5.813061
3445,60958.8,120.241,123.213,5.779735
3457,61171.2,120.08,123.029,5.697632
3469,61383.6,119.918,122.847,5.630936
3481,61596,119.754,122.666,5.553496
3493,61808.4,119.59,122.487,5.597231
3505,62020.8,119.427,122.307,5.488391
3517,62233.2,119.268,122.13,5.441338
3529,62445.6,119.111,121.953,5.379263
3541,62658,118.957,121.778,5.330485
3553,62870.4,118.805,121.605,5.274938
3565,63082.8,118.659,121.432,5.230751
3577,63295.2,118.516,121.261,5.220082
3589,63507.6,118.377,121.094,5.155984
3601,63720,118.24,120.927,5.087105
3613,63932.4,118.106,120.762,4.984826
3625,64144.8,117.973,120.6,4.847269
3637,64357.2,117.842,120.439,4.829181
3649,64569.6,117.711,120.281,4.733357
3661,64782,117.578,120.123,4.656148
3673,64994.4,117.445,119.968,4.564787
3685,65206.8,117.309,119.814,4.51797
3697,65419.2,117.17,119.661,4.492814
3709,65631.6,117.027,119.509,4.474301
3721,65844,116.883,119.357,4.824986
3733,66056.4,116.743,119.206,4.747231
3745,66268.8,116.606,119.056,4.504317
3757,66481.2,116.471,118.907,4.390392
3769,66693.6,116.338,118.758,4.311026
3781,66906,116.209,118.611,4.235291
3793,67118.4,116.083,118.465,4.197492
3805,67330.8,115.957,118.32,4.131107
3817,67543.2,115.83,118.176,4.070752
3829,67755.6,115.705,118.034,3.993489
3841,67968,115.577,117.893,3.952531
3853,68180.4,115.448,117.751,3.902963
3865,68392.8,115.317,117.611,3.869191
3877,68605.2,115.188,117.472,3.820882
3889,68817.6,115.061,117.333,3.767746
3901,69030,114.936,117.196,3.699103
3913,69242.4,114.811,117.058,3.67236
3925,69454.8,114.69,116.922,3.607032
3937,69667.2,114.569,116.787,3.562896
3949,69879.6,114.446,116.653,3.519559
3961,70092,114.323,116.52,3.462148
3973,70304.4,114.203,116.386,3.470656
3985,70516.8,114.084,116.255,3.3851
3997,70729.2,113.967,116.124,3.378013
4009,70941.6,113.85,115.993,3.324986
4021,71154,113.733,115.864,3.276618
4033,71366.4,113.616,115.736,3.235907
4045,71578.8,113.502,115.608,3.191832
4057,71791.2,113.39,115.481,3.149165
4069,72003.6,113.278,115.356,3.097991
4081,72216,113.166,115.231,3.06592
4093,72428.4,113.054,115.106,3.021179
4105,72640.8,112.943,114.983,2.985939
4117,72853.2,112.834,114.86,2.953041
4129,73065.6,112.726,114.739,2.912832
4141,73278,112.618,114.618,2.853593
4153,73490.4,112.51,114.498,2.821656
4165,73702.8,112.402,114.378,2.781515
4177,73915.2,112.297,114.26,2.759673
4189,74127.6,112.191,114.143,2.723598
4201,74340,112.087,114.026,2.695615
4213,74552.4,111.984,113.91,2.673023
4225,74764.8,111.883,113.796,2.636429
4237,74977.2,111.785,113.681,2.618264
4249,75189.6,111.686,113.568,2.586706
4261,75402,111.589,113.456,2.554167
4273,75614.4,111.492,113.345,2.519439
4285,75826.8,111.395,113.235,2.490405
4297,76039.2,111.301,113.126,2.455532
4309,76251.6,111.208,113.017,2.412695
4321,76464,111.117,112.91,2.380737
4333,76676.4,111.029,112.804,2.354497
4345,76888.8,110.946,112.699,2.326356
4357,77101.2,110.866,112.596,2.288389
4369,77313.6,110.788,112.495,2.238429
4381,77526,110.709,112.395,2.175835
4393,77738.4,110.631,112.295,2.143431
4405,77950.8,110.553,112.198,2.100549
4417,78163.2,110.476,112.102,2.072583
4429,78375.6,110.396,112.006,2.029874
4441,78588,110.315,111.912,1.98677
4453,78800.4,110.239,111.819,1.948511
4465,79012.8,110.166,111.727,1.889301
4477,79225.2,110.096,111.637,1.862561
4489,79437.6,110.028,111.547,1.815489
4501,79650,109.959,111.459,1.785561
4513,79862.4,109.889,111.371,1.744507
4525,80074.8,109.821,111.285,1.708311
4537,80287.2,109.757,111.201,1.675443
4549,80499.6,109.693,111.118,1.631724
4561,80712,109.63,111.036,1.602753
4573,80924.4,109.565,110.954,1.579921
4585,81136.8,109.493,110.875,1.529227
4597,81349.2,109.417,110.795,1.507541
4609,81561.6,109.344,110.715,1.47593
4621,81774,109.278,110.637,1.471513
4633,81986.4,109.214,110.559,1.439207
4645,82198.8,109.154,110.483,1.42514
4657,82411.2,109.1,110.407,1.389027
4669,82623.6,109.051,110.333,1.355957
4681,82836,109.007,110.261,1.321285
4693,83048.4,108.964,110.191,1.270718
4705,83260.8,108.924,110.122,1.229721
4717,83473.2,108.884,110.055,1.179335
4729,83685.6,108.846,109.99,1.145372
4741,83898,108.808,109.927,1.090822
4753,84110.4,108.771,109.865,1.06703
4765,84322.8,108.735,109.805,1.005832
4777,84535.2,108.702,109.747,0.96606
4789,84747.6,108.669,109.691,0.918142
4801,84960,108.638,109.635,0.870801
4813,85172.4,108.606,109.581,0.839948
4825,85384.8,108.572,109.529,0.792205
4837,85597.2,108.536,109.477,0.770337
4849,85809.6,108.5,109.427,0.73064
4861,86022,108.458,109.377,0.704351
4873,86234.4,108.407,109.328,0.691792
4885,86446.8,108.356,109.278,0.684233
4897,86659.2,108.313,109.229,0.67072
4909,86871.6,108.264,109.179,0.663456
4921,87084,108.205,109.13,0.660256
4933,87296.4,108.14,109.079,0.666142
4945,87508.8,108.076,109.028,0.67893
4957,87721.2,108.021,108.976,0.690478
4969,87933.6,107.97,108.925,0.706106
4981,88146,107.912,108.872,0.706701
4993,88358.4,107.846,108.819,0.706037
5005,88570.8,107.779,108.766,0.731121
5017,88783.2,107.72,108.711,0.744296
5029,88995.6,107.672,108.657,0.749937
5041,89208,107.625,108.603,0.737669
5053,89420.4,107.569,108.55,0.745512
5065,89632.8,107.512,108.496,0.740152
5077,89845.2,107.462,108.442,0.740136
5089,90057.6,107.426,108.389,0.72784
5101,90270,107.391,108.337,0.708915
5113,90482.4,107.348,108.286,0.700051
5125,90694.8,107.304,108.236,0.682037
5137,90907.2,107.266,108.185,0.658966
5149,91119.6,107.227,108.136,0.634924
5161,91332,107.179,108.087,0.632003
5173,91544.4,107.128,108.038,0.619928
5185,91756.8,107.085,107.989,0.616686
5197,91969.2,107.045,107.941,0.60301
5209,92181.6,106.999,107.893,0.603545
5221,92394,106.954,107.845,0.583535
5233,92606.4,106.92,107.798,0.588171
5245,92818.8,106.891,107.752,0.567184
5257,93031.2,106.86,107.706,0.547759
5269,93243.6,106.833,107.662,0.522937
5281,93456,106.808,107.62,0.501257
5293,93668.4,106.782,107.577,0.472594
5305,93880.8,106.755,107.537,0.449294
5317,94093.2,106.735,107.496,0.407912
5329,94305.6,106.712,107.457,0.390596
5341,94518,106.687,107.42,0.354237
5353,94730.4,106.667,107.383,0.342916
5365,94942.8,106.653,107.347,0.312231
5377,95155.2,106.641,107.313,0.281526
5389,95367.6,106.631,107.281,0.253023
5401,95580,106.617,107.249,0.221647
5413,95792.4,106.599,107.219,0.189301
5425,96004.8,106.585,107.189,0.168059
5437,96217.2,106.577,107.162,0.145216
5449,96429.6,106.574,107.135,0.103928
5461,96642,106.572,107.109,0.079154
5473,96854.4,106.561,107.085,0.049599
5485,97066.8,106.546,107.062,0.021624
5497,97279.2,106.534,107.039,0.004453
5509,97491.6,106.525,107.017,-0.009543
5521,97704,106.521,106.996,-0.035634
5533,97916.4,106.518,106.976,-0.053141
5545,98128.8,106.504,106.957,-0.068744
5557,98341.2,106.482,106.937,-0.086579
5569,98553.6,106.46,106.918,-0.085319
5581,98766,106.448,106.899,-0.101569
5593,98978.4,106.437,106.88,-0.103176
5605,99190.8,106.427,106.862,-0.112427
5617,99403.2,106.42,106.845,-0.116901
5629,99615.6,106.41,106.827,-0.133483
5641,99828,106.403,106.811,-0.152935
5653,100040.4,106.396,106.795,-0.170161
5665,100252.8,106.391,106.78,-0.181016
5677,100465.2,106.386,106.766,-0.192511
5689,100677.6,106.383,106.751,-0.203689
5701,100890,106.38,106.739,-0.231762
5713,101102.4,106.377,106.726,-0.244537
5725,101314.8,106.374,106.714,-0.263691
5737,101527.2,106.37,106.702,-0.268498
5749,101739.6,106.366,106.692,-0.283189
5761,101952,106.364,106.681,-0.294376
5773,102164.4,106.36,106.671,-0.303011
5785,102376.8,106.355,106.661,-0.321215
5797,102589.2,106.352,106.652,-0.324109
5809,102801.6,106.346,106.644,-0.340081
5821,103014,106.34,106.634,-0.347124
5833,103226.4,106.336,106.626,-0.344596
5845,103438.8,106.331,106.617,-0.359296
5857,103651.2,106.328,106.61,-0.35836
5869,103863.6,106.325,106.602,-0.365721
5881,104076,106.323,106.595,-0.378507
5893,104288.4,106.418,106.589,-0.400547
5905,104500.8,106.888,106.597,-0.553071
5917,104713.2,107.48,106.636,-0.933206
5929,104925.6,107.973,106.706,-1.480527
5941,105138,108.372,106.8,-2.067351
5953,105350.4,108.725,106.912,-2.584501
5965,105562.8,109.067,107.04,-3.028843
5977,105775.2,109.413,107.181,-3.416346
5989,105987.6,109.766,107.336,-3.755341
6001,106200,110.121,107.503,-4.072878
6013,106412.4,110.477,107.682,-4.376249
6025,106624.8,110.832,107.872,-4.652173
6037,106837.2,111.189,108.072,-4.933845
6049,107049.6,111.545,108.283,-5.181203
6061,107262,111.898,108.502,-5.422392
6073,107474.4,112.254,108.73,-5.646728
6085,107686.8,112.609,108.965,-5.868428
6097,107899.2,112.964,109.21,-6.073316
6109,108111.6,113.319,109.459,-6.268767
6121,108324,113.673,109.716,-6.435141
6133,108536.4,114.027,109.979,-6.619888
6145,108748.8,114.383,110.247,-6.785349
6157,108961.2,114.74,110.521,-6.95729
6169,109173.6,115.094,110.8,-7.111333
6181,109386,115.449,111.084,-7.250612
6193,109598.4,115.802,111.371,-7.387922
6205,109810.8,116.153,111.663,-7.534246
6217,110023.2,116.508,111.959,-7.66477
6229,110235.6,116.864,112.258,-7.796395
6241,110448,117.218,112.56,-7.925156
6253,110660.4,117.573,112.866,-8.031595
6265,110872.8,117.925,113.174,-8.163007
6277,111085.2,118.276,113.484,-8.280374
6289,111297.6,118.633,113.797,-8.408898
6301,111510,118.988,114.112,-8.512893
6313,111722.4,119.343,114.431,-8.641594
6325,111934.8,119.699,114.751,-8.768419
6337,112147.2,120.052,115.073,-8.903909
6349,112359.6,120.403,115.397,-9.023772
6361,112572,120.753,115.722,-9.159472
6373,112784.4,121.11,116.049,-9.307601
6385,112996.8,121.469,116.376,-9.478303
6397,113209.2,121.824,116.705,-9.639203
6409,113421.6,122.178,117.036,-9.831875
6421,113634,122.533,117.37,-10.0567
6433,113846.4,122.885,117.703,-10.2934
6445,114058.8,123.24,118.038,-10.5526
6457,114271.2,123.594,118.374,-10.8663
6469,114483.6,123.945,118.711,-11.2137
6481,114696,124.297,119.048,-11.5803
6493,114908.4,124.654,119.385,-12.0111
6505,115120.8,125.012,119.723,-12.4808
6517,115333.2,125.366,120.063,-12.9929
6529,115545.6,125.72,120.405,-13.5189
6541,115758,126.072,120.745,-14.0173
6553,115970.4,126.425,121.087,-14.448
6565,116182.8,126.781,121.429,-14.7155
6577,116395.2,127.135,121.773,-14.78993
6589,116607.6,127.49,122.116,-14.6288
6601,116820,127.843,122.46,-14.2904
6613,117032.4,128.197,122.804,-13.8822
6625,117244.8,128.55,123.149,-13.5219
6637,117457.2,128.904,123.495,-13.26755
6649,117669.6,129.258,123.84,-13.12368
6661,117882,129.612,124.187,-13.0485
6673,118094.4,129.967,124.533,-13.0045
6685,118306.8,130.321,124.879,-12.9905
6697,118519.2,130.675,125.226,-12.9785
6709,118731.6,131.029,125.573,-12.99693
6721,118944,131.383,125.921,-12.99708
6733,119156.4,131.736,126.268,-13.0182
6745,119368.8,132.089,126.616,-13.0307
6757,119581.2,132.442,126.964,-13.0344
6769,119793.6,132.795,127.312,-13.0577
6781,120006,133.15,127.66,-13.0613
6793,120218.4,133.507,128.008,-13.0795
6805,120430.8,133.861,128.356,-13.0911
6817,120643.2,134.216,128.705,-13.1164
6829,120855.6,134.57,129.053,-13.1291
6841,121068,134.924,129.402,-13.1518
6853,121280.4,135.274,129.752,-13.1673
6865,121492.8,135.628,130.101,-13.1772
6877,121705.2,135.982,130.45,-13.1957
6889,121917.6,136.337,130.799,-13.2043
6901,122130,136.693,131.149,-13.2303
6913,122342.4,137.047,131.498,-13.2415
6925,122554.8,137.401,131.848,-13.2681
6937,122767.2,137.755,132.197,-13.2795
6949,122979.6,138.108,132.547,-13.3033
6961,123192,138.463,132.898,-13.3119
6973,123404.4,138.815,133.248,-13.3319
6985,123616.8,139.169,133.597,-13.3462
6997,123829.2,139.524,133.948,-13.3584
7009,124041.6,139.878,134.298,-13.3732
7021,124254,140.232,134.648,-13.3901
7033,124466.4,140.587,134.997,-13.4111
7045,124678.8,140.939,135.348,-13.41737
7057,124891.2,141.294,135.698,-13.4438
7069,125103.6,141.65,136.049,-13.45063
7081,125316,142.003,136.4,-13.4693
7093,125528.4,142.356,136.75,-13.4793
7105,125740.8,142.71,137.101,-13.5019
7117,125953.2,143.066,137.452,-13.5164
7129,126165.6,143.419,137.803,-13.5374
7141,126378,143.773,138.153,-13.5516
7153,126590.4,144.127,138.505,-13.5735
7165,126802.8,144.48,138.856,-13.586
7177,127015.2,144.835,139.207,-13.5989
7189,127227.6,145.189,139.559,-13.613
7201,127440,145.543,139.91,-13.624
7213,127652.4,145.897,140.261,-13.6394
7225,127864.8,146.252,140.612,-13.645
7237,128077.2,146.605,140.964,-13.6614
7249,128289.6,146.96,141.315,-13.6643
7261,128502,147.313,141.667,-13.6819
7273,128714.4,147.666,142.0194,-13.6784
7285,128926.8,148.019,142.371,-13.6887
7297,129139.2,148.373,142.723,-13.6715
7309,129351.6,148.73,143.075,-13.6554
7321,129564,149.084,143.427,-13.62343
7333,129776.4,149.437,143.779,-13.5726
7345,129988.8,149.791,144.132,-13.5051
7357,130201.2,150.145,144.484,-13.3964
7369,130413.6,150.5,144.837,-13.2387
7381,130626,150.854,145.189,-13.0198
7393,130838.4,151.208,145.543,-12.7124
7405,131050.8,151.562,145.896,-12.2808
7417,131263.2,151.916,146.249,-11.7006
7429,131475.6,152.27,146.602,-10.88981
7441,131688,152.623,146.955,-9.802447
7453,131900.4,152.974,147.308,-8.322352
7465,132112.8,153.327,147.661,-6.329033
7477,132325.2,153.682,148.015,-3.627714
7489,132537.6,154.039,148.369,0.006937
7501,132750,154.394,148.722,4.884621
7513,132962.4,154.747,149.077,11.4211
7525,133174.8,155.104,149.431,20.06909
7537,133387.2,155.457,149.786,31.3637
7549,133599.6,155.812,150.141,45.7885
7561,133812,156.166,150.498,63.5076
7573,134024.4,156.52,150.856,83.7417
7585,134236.8,156.875,151.215,103.891
7597,134449.2,157.227,151.574,118.46
7609,134661.6,157.581,151.933,120.49
7621,134874,157.936,152.291,106.85
7633,135086.4,158.289,152.647,82.3396
7645,135298.8,158.642,153.003,55.5815
7657,135511.2,158.997,153.357,32.8128
7669,135723.6,159.351,153.711,16.123
7681,135936,159.703,154.064,5.099009
7693,136148.4,160.056,154.417,-1.590734
7705,136360.8,160.411,154.77,-5.434225
7717,136573.2,160.765,155.123,-7.551673
7729,136785.6,161.118,155.475,-8.67379
7741,136998,161.473,155.828,-9.273793
7753,137210.4,161.828,156.1808,-9.624512
7765,137422.8,162.182,156.534,-9.848623
7777,137635.2,162.535,156.887,-9.989132
7789,137847.6,162.889,157.241,-10.05924
7801,138060,163.243,157.595,-10.1166
7813,138272.4,163.597,157.948,-10.1818
7825,138484.8,163.951,158.301,-10.2486
7837,138697.2,164.306,158.655,-10.262
7849,138909.6,164.659,159.008,-10.2886
7861,139122,165.011,159.362,-10.2979
7873,139334.4,165.364,159.715,-10.3362
7885,139546.8,165.719,160.069,-10.3535
7897,139759.2,166.075,160.423,-10.3832
7909,139971.6,166.429,160.777,-10.4175
7921,140184,166.784,161.13,-10.4523
7933,140396.4,167.138,161.485,-10.4694
7945,140608.8,167.492,161.839,-10.51381
7957,140821.2,167.846,162.193,-10.5336
7969,141033.6,168.199,162.547,-10.5693
7981,141246,168.553,162.901,-10.613
7993,141458.4,168.908,163.256,-10.6496
8005,141670.8,169.263,163.61,-10.6594
8017,141883.2,169.617,163.965,-10.7188
8029,142095.6,169.971,164.32,-10.7646
8041,142308,170.325,164.674,-10.8388
8053,142520.4,170.678,165.029,-10.8658
8065,142732.8,171.033,165.383,-10.9117
8077,142945.2,171.386,165.738,-10.9227
8089,143157.6,171.74,166.093,-10.9874
8101,143370,172.095,166.449,-11.0886
8113,143582.4,172.449,166.803,-11.152
8125,143794.8,172.803,167.159,-11.2233
8137,144007.2,173.157,167.514,-11.3013
8149,144219.6,173.511,167.869,-11.40344
8161,144432,173.865,168.224,-11.461
8173,144644.4,174.217,168.58,-11.4502
8185,144856.8,174.571,168.935,-11.359
8197,145069.2,174.926,169.29,-11.4371
8209,145281.6,175.279,169.645,-11.353
8221,145494,175.635,170.001,-11.5333
8233,145706.4,175.989,170.356,-11.3115
8245,145918.8,176.343,170.712,-10.92
8257,146131.2,176.697,171.068,-10.5095
8269,146343.6,177.05,171.423,-10.8573
8281,146556,177.404,171.778,-10.9652
8293,146768.4,177.758,172.134,-11.12415
8305,146980.8,178.111,172.489,-11.2292
8317,147193.2,178.466,172.844,-11.3347
8329,147405.6,178.819,173.2,-11.4482
8341,147618,179.174,173.556,-11.6094
8353,147830.4,179.528,173.911,-11.7604
8365,148042.8,179.882,174.266,-11.9856
8377,148255.2,180.236,174.622,-12.2613
8389,148467.6,180.591,174.978,-13.0258
8401,148680,180.943,175.332,-14.7218
8413,148892.4,181.293,175.688,-19.2119
8425,149104.8,181.645,176.042,-33.5277
8437,149317.2,181.997,176.395,-62.1507
8449,149529.6,182.352,176.747,-100.023
8461,149742,182.706,177.095,-140.628
8473,149954.4,183.061,177.442,-174.836
8485,150166.8,183.415,177.789,-200.303
8497,150379.2,183.77,178.135,-217.089
8509,150591.6,184.126,178.483,-230.89
8521,150804,184.48,178.829,-225.177
8533,151016.4,184.837,179.179,-170.396
8545,151228.8,185.194,179.533,-88.0092
8557,151441.2,185.549,179.889,-49.43
8569,151653.6,185.9,180.245,-32.1074
8581,151866,186.255,180.603,-24.4242
8593,152078.4,186.609,180.959,-20.95526
8605,152290.8,186.962,181.317,-19.3815
8617,152503.2,187.317,181.673,-18.74653
8629,152715.6,187.673,182.031,-18.4557
8641,152928,188.031,182.389,-18.3241
8653,153140.4,188.389,182.747,-18.3532
8665,153352.8,188.739,183.105,-18.43496
8677,153565.2,189.088,183.463,-18.4263
8689,153777.6,189.439,183.82,-18.4965
8701,153990,189.789,184.177,-18.5335
8713,154202.4,190.142,184.533,-18.548
8725,154414.8,190.498,184.889,-18.5698
8737,154627.2,190.852,185.246,-18.6205
8749,154839.6,191.207,185.602,-18.6921
8761,155052,191.561,185.958,-18.7465
8773,155264.4,191.915,186.313,-18.7754
8785,155476.8,192.271,186.67,-18.80112
8797,155689.2,192.624,187.024,-18.8429
8809,155901.6,192.978,187.38,-18.9885
8821,156114,193.332,187.735,-18.923
8833,156326.4,193.687,188.092,-19.0126
8845,156538.8,194.042,188.447,-19.0713
8857,156751.2,194.395,188.802,-19.1766
8869,156963.6,194.749,189.159,-19.2107
8881,157176,195.103,189.514,-19.2944
8893,157388.4,195.459,189.869,-19.3715
8905,157600.8,195.814,190.225,-19.4465
8917,157813.2,196.166,190.581,-19.4254
8929,158025.6,196.521,190.936,-19.5287
8941,158238,196.874,191.293,-19.5576
8953,158450.4,197.229,191.648,-19.61445
8965,158662.8,197.582,192.004,-19.6188
8977,158875.2,197.936,192.359,-19.7233
8989,159087.6,198.29,192.714,-19.7879
9001,159300,198.645,193.071,-19.814
9013,159512.4,198.998,193.427,-19.8842
9025,159724.8,199.351,193.782,-20.0541
9037,159937.2,199.705,194.137,-20.01
9049,160149.6,200.06,194.494,-20.0543
9061,160362,200.415,194.85,-20.1053
9073,160574.4,200.768,195.205,-20.2119
9085,160786.8,201.122,195.562,-20.2874
9097,160999.2,201.478,195.916,-20.3509
9109,161211.6,201.83,196.273,-20.487
9121,161424,202.184,196.628,-20.4319
9133,161636.4,202.538,196.984,-20.5137
9145,161848.8,202.893,197.339,-20.4665
9157,162061.2,203.247,197.696,-20.4911
9169,162273.6,203.601,198.052,-20.6379
9181,162486,203.954,198.408,-20.8127
9193,162698.4,204.308,198.765,-20.8748
9205,162910.8,204.662,199.12,-21.0516
9217,163123.2,205.017,199.476,-21.1467
9229,163335.6,205.371,199.832,-21.296
9241,163548,205.726,200.188,-21.3523
9253,163760.4,206.079,200.544,-21.4633
9265,163972.8,206.433,200.9,-21.609
9277,164185.2,206.787,201.257,-21.4964
9289,164397.6,207.141,201.613,-21.551
9301,164610,207.496,201.97,-21.6923
9313,164822.4,207.851,202.326,-21.7229
9325,165034.8,208.205,202.682,-21.74518
9337,165247.2,208.559,203.039,-21.8813
9349,165459.6,208.914,203.395,-22.0476
9361,165672,209.271,203.752,-21.9267
9373,165884.4,209.626,204.11,-22.13354
9385,166096.8,209.982,204.467,-22.1587
9397,166309.2,210.335,204.826,-22.4648
9409,166521.6,210.689,205.184,-22.5357
9421,166734,211.041,205.543,-22.83792
9433,166946.4,211.394,205.901,-23.10279
9445,167158.8,211.748,206.259,-23.1793
9457,167371.2,212.1,206.617,-23.1459
9469,167583.6,212.453,206.976,-23.3711
9481,167796,212.808,207.333,-23.36668
9493,168008.4,213.162,207.692,-23.4727
9505,168220.8,213.514,208.05,-23.6476
9517,168433.2,213.869,208.408,-23.8742
9529,168645.6,214.222,208.766,-23.9906
9541,168858,214.574,209.124,-23.926
9553,169070.4,214.927,209.481,-24.0048
9565,169282.8,215.283,209.838,-24.1001
9577,169495.2,215.637,210.196,-24.0708
9589,169707.6,215.991,210.553,-24.3468
9601,169920,216.346,210.91,-24.58695
9613,170132.4,216.7,211.268,-24.7179
9625,170344.8,217.055,211.624,-24.88921
9637,170557.2,217.409,211.982,-25.1036
9649,170769.6,217.762,212.34,-25.2383
9661,170982,218.116,212.696,-25.32
9673,171194.4,218.47,213.054,-25.4367
9685,171406.8,218.824,213.41,-25.4262
9697,171619.2,219.178,213.768,-25.7055
9709,171831.6,219.531,214.125,-25.6733
9721,172044,219.884,214.481,-25.8711
9733,172256.4,220.237,214.838,-26.0688
9745,172468.8,220.587,215.194,-26.1444
9757,172681.2,220.939,215.55,-26.4723
9769,172893.6,221.294,215.905,-26.4865
9781,173106,221.652,216.261,-26.5545
9793,173318.4,222.008,216.616,-26.7957
9805,173530.8,222.362,216.972,-27.0841
9817,173743.2,222.712,217.327,-27.1741
9829,173955.6,223.068,217.683,-27.3166
9841,174168,223.424,218.037,-27.3236
9853,174380.4,223.78,218.393,-27.5897
9865,174592.8,224.137,218.749,-27.8777
9877,174805.2,224.491,219.105,-28.3205
9889,175017.6,224.844,219.462,-28.4124
9901,175230,225.198,219.819,-28.7433
9913,175442.4,225.548,220.175,-28.81985
9925,175654.8,225.9,220.531,-28.87873
9937,175867.2,226.255,220.886,-29.0899
9949,176079.6,226.609,221.242,-29.3973
9961,176292,226.961,221.598,-29.5623
9973,176504.4,227.317,221.953,-29.7868
9985,176716.8,227.673,222.308,-29.9084
9997,176929.2,228.026,222.664,-30.09745
10009,177141.6,228.381,223.021,-30.4624
10021,177354,228.736,223.377,-30.6554
10033,177566.4,229.089,223.732,-30.8416
10045,177778.8,229.444,224.088,-31.2519
10057,177991.2,229.799,224.444,-31.5713
10069,178203.6,230.152,224.801,-31.8294
10081,178416,230.507,225.157,-32.1336
10093,178628.4,230.861,225.513,-32.407
10105,178840.8,231.216,225.87,-32.6973
10117,179053.2,231.569,226.226,-33.1352
10129,179265.6,231.921,226.583,-33.4645
10141,179478,232.275,226.94,-33.6947
10153,179690.4,232.629,227.295,-33.92203
10165,179902.8,232.983,227.651,-34.1426
10177,180115.2,233.338,228.008,-34.2773
10189,180327.6,233.693,228.364,-34.7009
10201,180540,234.047,228.72,-35.0026
10213,180752.4,234.402,229.076,-35.3451
10225,180964.8,234.753,229.433,-35.6587
10237,181177.2,235.106,229.789,-36.1022
10249,181389.6,235.459,230.146,-36.4566
10261,181602,235.815,230.501,-36.8349
10273,181814.4,236.169,230.857,-37.1936
10285,182026.8,236.524,231.214,-37.3227
10297,182239.2,236.878,231.57,-37.6289
10309,182451.6,237.231,231.925,-37.8426
10321,182664,237.584,232.282,-38.3491
10333,182876.4,237.938,232.638,-38.4945
10345,183088.8,238.291,232.993,-38.8502
10357,183301.2,238.646,233.35,-39.1763
10369,183513.6,239,233.705,-39.4269
10381,183726,239.356,234.062,-39.5307
10393,183938.4,239.71,234.417,-39.4679
10405,184150.8,240.062,234.772,-39.2945
10417,184363.2,240.417,235.129,-39.0633
10429,184575.6,240.77,235.486,-38.7063
10441,184788,241.124,235.841,-37.6401
10453,185000.4,241.479,236.197,-35.4148
10465,185212.8,241.833,236.554,-32.4208
10477,185425.2,242.186,236.911,-29.3407
10489,185637.6,242.541,237.268,-26.8158
10501,185850,242.895,237.624,-25.4236
10513,186062.4,243.25,237.981,-24.5686
10525,186274.8,243.602,238.337,-24.1228
10537,186487.2,243.957,238.695,-23.753
10549,186699.6,244.312,239.05,-23.3494
10561,186912,244.665,239.407,-23.26975
10573,187124.4,245.019,239.764,-23.257
10585,187336.8,245.372,240.12,-23.2315
10597,187549.2,245.728,240.476,-23.1254
10609,187761.6,246.081,240.833,-23.0625
10621,187974,246.435,241.189,-23.1317
10633,188186.4,246.787,241.545,-23.03945
10645,188398.8,247.142,241.902,-23.0389
10657,188611.2,247.4963,242.257,-23.1542
10669,188823.6,247.852,242.614,-23.28232
10681,189036,248.205,242.97,-23.296
10693,189248.4,248.558,243.326,-23.3879
10705,189460.8,248.912,243.682,-23.4693
10717,189673.2,249.267,244.038,-23.3989
10729,189885.6,249.621,244.394,-23.1393
10741,190098,249.975,244.75,-23.3193
10753,190310.4,250.33,245.106,-23.3967
10765,190522.8,250.683,245.462,-23.50185
10777,190735.2,251.037,245.818,-23.4663
10789,190947.6,251.39,246.174,-23.3301
10801,191160,251.745,246.529,-23.3216
10813,191372.4,252.1,246.885,-23.3028
10825,191584.8,252.452,247.242,-23.3614
10837,191797.2,252.807,247.597,-23.5187
10849,192009.6,253.16,247.953,-23.5412
10861,192222,253.514,248.308,-23.6074
10873,192434.4,253.87,248.665,-23.6734
10885,192646.8,254.224,249.021,-23.6537
10897,192859.2,254.577,249.377,-23.7285
10909,193071.6,254.932,249.733,-23.7205
10921,193284,255.285,250.088,-23.7216
10933,193496.4,255.64,250.444,-23.7373
10945,193708.8,255.992,250.799,-23.7835
10957,193921.2,256.346,251.156,-23.8947
10969,194133.6,256.701,251.512,-23.85065
10981,194346,257.055,251.868,-23.87348
10993,194558.4,257.41,252.224,-23.8695
11005,194770.8,257.7634,252.58,-23.8682
11017,194983.2,258.118,252.936,-23.9601
11029,195195.6,258.472,253.292,-23.9335
11041,195408,258.825,253.647,-23.9432
11053,195620.4,259.18,254.003,-23.8845
11065,195832.8,259.532,254.358,-23.9993
11077,196045.2,259.886,254.715,-24.0423
11089,196257.6,260.24,255.0703,-24.0818
11101,196470,260.594,255.426,-24.1832
11113,196682.4,260.95,255.781,-24.1791
11125,196894.8,261.304,256.137,-24.2511
11137,197107.2,261.658,256.493,-24.2895
11149,197319.6,262.01,256.849,-24.2776
11161,197532,262.365,257.204,-24.3037
11173,197744.4,262.718,257.56,-24.3476
11185,197956.8,263.072,257.916,-24.3499
11197,198169.2,263.425,258.271,-24.3974
11209,198381.6,263.781,258.627,-24.3083
11221,198594,264.135,258.982,-24.4134
11233,198806.4,264.49,259.338,-24.3592
11245,199018.8,264.844,259.693,-24.3958
11257,199231.2,265.199,260.05,-24.5128
11269,199443.6,265.553,260.406,-24.5346
11281,199656,265.904,260.761,-24.6323
11293,199868.4,266.259,261.117,-24.6621
11305,200080.8,266.612,261.472,-24.6881
11317,200293.2,266.967,261.828,-24.574
11329,200505.6,267.3206,262.184,-24.5874
11341,200718,267.674,262.54,-24.7302
11353,200930.4,268.028,262.895,-24.7663
11365,201142.8,268.382,263.251,-24.7854
11377,201355.2,268.7367,263.606,-24.7629
11389,201567.6,269.091,263.962,-24.8255
11401,201780,269.446,264.317,-24.9006
11413,201992.4,269.799,264.673,-24.8837
11425,202204.8,270.152,265.028,-24.94578
11437,202417.2,270.502,265.384,-24.9049
11449,202629.6,270.855,265.739,-24.9461
11461,202842,271.21,266.093,-24.8853
11473,203054.4,271.567,266.447,-24.9114
11485,203266.8,271.925,266.802,-24.9625
11497,203479.2,272.282,267.158,-25.0154
11509,203691.6,272.635,267.513,-25.0043
11521,203904,272.988,267.869,-25.0719
11533,204116.4,273.34,268.225,-25.1129
11545,204328.8,273.695,268.582,-25.1638
11557,204541.2,274.05,268.937,-25.1855
11569,204753.6,274.404,269.292,-25.221
11581,204966,274.758,269.649,-25.2695
11593,205178.4,275.112,270.005,-25.2991
11605,205390.8,275.467,270.361,-25.3155
11617,205603.2,275.819,270.717,-25.3194
11629,205815.6,276.172,271.074,-25.3603
11641,206028,276.525,271.429,-25.4044
11653,206240.4,276.88,271.787,-25.457
11665,206452.8,277.235,272.142,-25.4978
11677,206665.2,277.587,272.497,-25.4919
11689,206877.6,277.942,272.854,-25.5185
11701,207090,278.296,273.21,-25.59149
11713,207302.4,278.65,273.566,-25.5627
11725,207514.8,279.003,273.923,-25.6258
11737,207727.2,279.354,274.278,-25.6411
11749,207939.6,279.707,274.634,-25.6583
11761,208152,280.06,274.989,-25.6603
11773,208364.4,280.416,275.344,-25.6558
11785,208576.8,280.772,275.699,-25.6823
11797,208789.2,281.125,276.054,-25.6812
11809,209001.6,281.48,276.409,-25.7046
11821,209214,281.832,276.764,-25.73891
11833,209426.4,282.185,277.12,-25.768
11845,209638.8,282.538,277.474,-25.7679
11857,209851.2,282.891,277.828,-25.7545
11869,210063.6,283.249,278.183,-25.749
11881,210276,283.603,278.537,-25.7656
11893,210488.4,283.958,278.892,-25.8105
11905,210700.8,284.314,279.2461,-25.8671
11917,210913.2,284.668,279.601,-25.8807
11929,211125.6,285.02,279.956,-25.91472
11941,211338,285.375,280.312,-25.9261
11953,211550.4,285.729,280.667,-25.9377
11965,211762.8,286.084,281.021,-25.9644
11977,211975.2,286.44,281.377,-25.9985
11989,212187.6,286.793,281.733,-26.0253
12001,212400,287.148,282.088,-26.0549
12013,212612.4,287.501,282.444,-26.0582
12025,212824.8,287.854,282.799,-26.0601
12037,213037.2,288.208,283.155,-26.0795
12049,213249.6,288.564,283.51,-26.0875
12061,213462,288.916,283.867,-26.0827
12073,213674.4,289.269,284.2214,-26.1059
12085,213886.8,289.624,284.578,-26.1325
12097,214099.2,289.977,284.934,-26.1561
12109,214311.6,290.33,285.288,-26.152
12121,214524,290.684,285.644,-26.1233
12133,214736.4,291.037,285.998,-26.1459
12145,214948.8,291.392,286.354,-26.1548
12157,215161.2,291.744,286.709,-26.1635
12169,215373.6,292.099,287.064,-26.14901
12181,215586,292.452,287.418,-26.15711
12193,215798.4,292.807,287.773,-26.1487
12205,216010.8,293.16,288.127,-26.1112
12217,216223.2,293.512,288.482,-26.1076
12229,216435.6,293.867,288.834,-26.1015
12241,216648,294.223,289.189,-26.0723
12253,216860.4,294.582,289.544,-26.0602
12265,217072.8,294.937,289.897,-26.0652
12277,217285.2,295.289,290.252,-26.07099
12289,217497.6,295.642,290.607,-26.0603
12301,217710,295.993,290.96,-26.0183
12313,217922.4,296.345,291.314,-25.9934
12325,218134.8,296.7,291.667,-25.9371
12337,218347.2,297.056,292.02,-25.8982
12349,218559.6,297.411,292.372,-25.8868
12361,218772,297.766,292.725,-25.9023
12373,218984.4,298.12,293.078,-25.8926
12385,219196.8,298.476,293.43,-25.8949
12397,219409.2,298.831,293.782,-25.8794
12409,219621.6,299.183,294.133,-25.86
12421,219834,299.534,294.483,-25.8391
12433,220046.4,299.888,294.833,-25.7734
12445,220258.8,300.24,295.186,-25.741
12457,220471.2,300.594,295.541,-25.7845
12469,220683.6,300.952,295.897,-25.884
12481,220896,301.304,296.255,-26.04
12493,221108.4,301.658,296.612,-26.1622
12505,221320.8,302.012,296.97,-26.2305
12517,221533.2,302.365,297.326,-26.2539
12529,221745.6,302.72,297.683,-26.22797
12541,221958,303.075,298.04,-26.2277
12553,222170.4,303.431,298.395,-26.2405
12565,222382.8,303.784,298.752,-26.2472
12577,222595.2,304.139,299.109,-26.258
12589,222807.6,304.494,299.465,-26.2744
12601,223020,304.848,299.823,-26.2811
12613,223232.4,305.201,300.179,-26.2833
12625,223444.8,305.555,300.536,-26.289
12637,223657.2,305.91,300.892,-26.2935
12649,223869.6,306.261,301.248,-26.2927
12661,224082,306.615,301.605,-26.3031
12673,224294.4,306.97,301.959,-26.3228
12685,224506.8,307.324,302.315,-26.3319
12697,224719.2,307.678,302.671,-26.3144
12709,224931.6,308.031,303.026,-26.3092
12721,225144,308.386,303.382,-26.3044
12733,225356.4,308.737,303.738,-26.3053
12745,225568.8,309.091,304.093,-26.3077
12757,225781.2,309.444,304.448,-26.3117
12769,225993.6,309.799,304.802,-26.31142
12781,226206,310.157,305.157,-26.3116
12793,226418.4,310.512,305.513,-26.3299
12805,226630.8,310.865,305.87,-26.3558
12817,226843.2,311.215,306.226,-26.3883
12829,227055.6,311.567,306.581,-26.4079
12841,227268,311.922,306.937,-26.4091
12853,227480.4,312.278,307.292,-26.3957
12865,227692.8,312.632,307.648,-26.3899
12877,227905.2,312.987,308.002,-26.3886
12889,228117.6,313.341,308.358,-26.392
12901,228330,313.696,308.713,-26.39719
12913,228542.4,314.046,309.068,-26.4111
12925,228754.8,314.398,309.423,-26.4291
12937,228967.2,314.755,309.778,-26.4284
12949,229179.6,315.112,310.132,-26.4248
12961,229392,315.465,310.487,-26.4149
12973,229604.4,315.82,310.842,-26.4203
12985,229816.8,316.174,311.197,-26.4309
12997,230029.2,316.527,311.552,-26.4412
13009,230241.6,316.88,311.907,-26.4553
13021,230454,317.233,312.262,-26.4612
13033,230666.4,317.585,312.616,-26.4598
13045,230878.8,317.938,312.971,-26.4524
13057,231091.2,318.293,313.325,-26.4567
13069,231303.6,318.646,313.678,-26.452
13081,231516,318.998,314.032,-26.4368
13093,231728.4,319.217,314.383,-26.4327
13105,231940.8,319.199,314.711,-26.2031
13117,232153.2,319.175,315.01,-25.4108
13129,232365.6,319.165,315.282,-24.0747
13141,232578,319.164,315.53,-22.4214
13153,232790.4,319.164,315.756,-20.6682
13165,233002.8,319.16,315.963,-18.9542
13177,233215.2,319.157,316.151,-17.3154
13189,233427.6,319.16,316.324,-15.7841
13201,233640,319.16,316.481,-14.3556
13213,233852.4,319.157,316.625,-13.06728
13225,234064.8,319.155,316.756,-11.8783
13237,234277.2,319.155,316.875,-10.7719
13249,234489.6,319.15,316.985,-9.766784
13261,234702,319.148,317.083,-8.835329
13273,234914.4,319.151,317.173,-7.96755
13285,235126.8,319.15,317.255,-7.186197
13297,235339.2,319.151,317.33,-6.478586
13309,235551.6,319.151,317.398,-5.830505
13321,235764,319.143,317.459,-5.246661
13333,235976.4,319.141,317.514,-4.691591
13345,236188.8,319.147,317.563,-4.165782
13357,236401.2,319.152,317.608,-3.688129
13369,236613.6,319.15,317.651,-3.283936
13381,236826,319.149,317.689,-2.927038
13393,237038.4,319.152,317.723,-2.606792
13405,237250.8,319.155,317.756,-2.310698
13417,237463.2,319.154,317.786,-2.050403
13429,237675.6,319.155,317.813,-1.821681
13441,237888,319.149,317.838,-1.603941
13453,238100.4,319.144,317.86,-1.396507
13465,238312.8,319.148,317.88,-1.193807
13477,238525.2,319.153,317.898,-1.011364
13489,238737.6,319.153,317.914,-0.846309
13501,238950,319.15,317.93,-0.708259
13513,239162.4,319.152,317.943,-0.585907
13525,239374.8,319.157,317.956,-0.462207
13537,239587.2,319.158,317.969,-0.370404
13549,239799.6,319.158,317.983,-0.292945
13561,240012,319.157,317.994,-0.232363
13573,240224.4,319.154,318.005,-0.172626
13585,240436.8,319.153,318.014,-0.110189
13597,240649.2,319.151,318.024,-0.043198
13609,240861.6,319.149,318.031,0.023793
13621,241074,319.149,318.039,0.097194
13633,241286.4,319.141,318.044,0.164521
13645,241498.8,319.139,318.047,0.26374
13657,241711.2,319.144,318.05,0.366332
13669,241923.6,319.146,318.054,0.46285
13681,242136,319.141,318.056,0.533044
13693,242348.4,319.14,318.057,0.600708
13705,242560.8,319.145,318.057,0.678159
13717,242773.2,319.141,318.057,0.728442
13729,242985.6,319.14,318.057,0.780076
13741,243198,319.146,318.056,0.830192
13753,243410.4,319.148,318.056,0.861409
13765,243622.8,319.139,318.054,0.870859
13777,243835.2,319.139,318.052,0.913214
13789,244047.6,319.144,318.049,0.960969
13801,244260,319.146,318.048,0.996743
13813,244472.4,319.139,318.046,1.008556
13825,244684.8,319.1397,318.042,1.043825
13837,244897.2,319.145,318.039,1.074876
13849,245109.6,319.148,318.038,1.095126
13861,245322,319.147,318.034,1.103565
13873,245534.4,319.148,318.032,1.095974
13885,245746.8,319.146,318.03,1.088382
13897,245959.2,319.139,318.027,1.088385
13909,246171.6,319.14,318.023,1.120449
13921,246384,319.146,318.019,1.145594
13933,246596.4,319.147,318.016,1.163315
13945,246808.8,319.147,318.014,1.159605
13957,247021.2,319.1505,318.011,1.153532
13969,247233.6,319.159,318.01,1.138177
13981,247446,319.161,318.011,1.093291
13993,247658.4,319.152,318.011,1.031699
14005,247870.8,319.143,318.01,0.999132
14017,248083.2,319.145,318.008,1.012971
14029,248295.6,319.15,318.007,1.044189
14041,248508,319.15,318.006,1.053977
14053,248720.4,319.148,318.005,1.047397
14065,248932.8,319.151,318.004,1.047398
14077,249145.2,319.157,318.004,1.043685
14089,249357.6,319.15,318.004,1.012298
14101,249570,319.145,318.004,0.999136
14113,249782.4,319.151,318.004,1.010274
14125,249994.8,319.155,318.004,1.020736
14137,250207.2,319.147,318.004,1.000993
14149,250419.6,319.144,318.003,1.008925
14161,250632,319.146,318.002,1.020232
14173,250844.4,319.155,318.001,1.0447
14185,251056.8,319.157,318.002,1.035081
14197,251269.2,319.159,318.004,1.009937
14209,251481.6,319.157,318.005,0.963699
14221,251694,319.156,318.008,0.929442
14233,251906.4,319.147,318.009,0.899237
14245,252118.8,319.14,318.009,0.907674
14257,252331.2,319.142,318.008,0.950367
14269,252543.6,319.149,318.007,0.992553
14281,252756,319.158,318.008,1.02377
14293,252968.4,319.159,318.01,1.002339
14305,253180.8,319.159,318.012,0.973651
14317,253393.2,319.151,318.014,0.926569
14329,253605.6,319.147,318.015,0.917963
14341,253818,319.149,318.015,0.925725
14353,254030.4,319.154,318.017,0.940911
14365,254242.8,319.161,318.019,0.940404
14377,254455.2,319.159,318.022,0.916609
14389,254667.6,319.16,318.024,0.87729
14401,254880,319.159,318.028,0.85012
14413,255092.4,319.155,318.032,0.820757
14425,255304.8,319.152,318.035,0.807256
14437,255517.2,319.154,318.037,0.815017
14449,255729.6,319.157,318.04,0.811303
14461,255942,319.163,318.044,0.813494
14473,256154.4,319.165,318.049,0.791049
14485,256366.8,319.165,318.055,0.75038
14497,256579.2,319.161,318.061,0.707686
14509,256791.6,319.159,318.066,0.678323
14521,257004,319.157,318.071,0.660603
14533,257216.4,319.161,318.076,0.659925
14545,257428.8,319.164,318.082,0.672915
14557,257641.2,319.164,318.089,0.660426
14569,257853.6,319.165,318.096,0.649286
14581,258066,319.166,318.103,0.626166
14593,258278.4,319.165,318.111,0.600178
14605,258490.8,319.164,318.118,0.575034
14617,258703.2,319.16,318.125,0.560352
14629,258915.6,319.157,318.132,0.549887
14641,259128,319.154,318.137,0.550223
14653,259340.4,319.154,318.143,0.57941
14665,259552.8,319.153,318.149,0.606742
14677,259765.2,319.154,318.154,0.619563
14689,259977.6,319.153,318.159,0.641495
14701,260190,319.151,318.1626,0.670345
14713,260402.4,319.15,318.167,0.693627
14725,260614.8,319.1504,318.17,0.721803
14737,260827.2,319.151,318.172,0.755884
14749,261039.6,319.151,318.176,0.789626
14761,261252,319.15,318.179,0.812402
14773,261464.4,319.153,318.182,0.83754
14785,261676.8,319.155,318.184,0.849856
14797,261889.2,319.154,318.187,0.844286
14809,262101.6,319.155,318.191,0.850527
14821,262314,319.155,318.193,0.845295
14833,262526.4,319.155,318.196,0.852211
14845,262738.8,319.154,318.2,0.849846
14857,262951.2,319.152,318.202,0.861655
14869,263163.6,319.152,318.204,0.880382
14881,263376,319.153,318.207,0.883586
14893,263588.4,319.153,318.209,0.902818
14905,263800.8,319.153,318.212,0.904166
14917,264013.2,319.151,318.213,0.91935
14929,264225.6,319.151,318.215,0.926772
14941,264438,319.149,318.217,0.948536
14953,264650.4,319.15,318.218,0.960514
14956,264703.5,319.151,318.219,0.96895