File: i_data/46C/H2O-NH3_3.8153g.csv
H2O-NH3 15wt% Specific Heat - Large HF,,,,
Creation Date : 10/14/2022 1:35:53 PM,,,,
User : admin,,,,
,,,,
HeatFlow :,,,,
 Initial Mass : 3815.3 mg,,,,
 Molar Mass : 17 g/mol,,,,
,,,,
Index,Time(s),Furnace Temperature(K),Sample Temperature(K),HeatFlow(mW)
1,0,318.911,319.008,-1368.49
13,212.4,318.672,318.959,-667.085
25,424.8,318.464,318.911,-327.995
37,637.2,318.274,318.857,-162.94
49,849.6,318.09,318.794,-82.0172
61,1062,317.902,318.723,-41.9464
73,1274.4,317.691,318.641,-20.6192
85,1486.8,317.438,318.547,-9.249483
97,1699.2,317.12,318.437,-2.856628
109,1911.6,316.72,318.304,1.133043
121,2124,316.219,318.145,4.073078
133,2336.4,315.602,317.95,6.749876
145,2548.8,314.826,317.712,9.510099
157,2761.2,313.86,317.416,12.6943
169,2973.6,312.692,317.054,16.4782
181,3186,311.337,316.611,21.0462
193,3398.4,309.834,316.079,26.493
205,3610.8,308.23,315.458,32.6565
217,3823.2,306.5712,314.745,39.2936
229,4035.6,304.884,313.949,46.1515
241,4248,303.188,313.073,52.96934
253,4460.4,301.49,312.1239,59.54511
265,4672.8,299.8,311.111,65.7332
277,4885.2,298.117,310.041,71.4716
289,5097.6,296.446,308.92,76.6973
301,5310,294.79,307.752,81.4027
313,5522.4,293.149,306.546,85.5799
325,5734.8,291.528,305.306,89.2721
337,5947.2,289.921,304.038,92.5111
349,6159.6,288.336,302.745,95.30331
361,6372,286.776,301.431,97.6867
373,6584.4,285.242,300.099,99.7143
385,6796.8,283.73,298.753,101.362
397,7009.2,282.24,297.398,102.631
409,7221.6,280.773,296.037,103.585
421,7434,279.326,294.671,104.29
433,7646.4,277.901,293.308,104.67
445,7858.8,276.493,291.956,104.39
457,8071.2,275.106,290.601,104.205
469,8283.6,273.733,289.239,104.3
481,8496,272.376,287.878,104.405
493,8708.4,271.033,286.519,104.513
505,8920.8,269.704,285.165,104.303
517,9133.2,268.387,283.816,103.978
529,9345.6,267.084,282.474,103.644
541,9558,265.797,281.139,103.073
553,9770.4,264.525,279.812,102.442
565,9982.8,263.264,278.493,101.888
577,10195.2,262.016,277.182,101.123
589,10407.6,260.778,275.88,100.392
601,10620,259.555,274.588,99.7021
613,10832.4,258.342,273.304,99.029
625,11044.8,257.14,272.031,98.22438
637,11257.2,255.949,270.765,97.3305
649,11469.6,254.765,269.511,96.5608
661,11682,253.594,268.265,95.5303
673,11894.4,252.431,267.029,94.56781
685,12106.8,251.281,265.802,93.6495
697,12319.2,250.143,264.584,92.8366
709,12531.6,249.019,263.377,92.0487
721,12744,247.904,262.18,91.2317
733,12956.4,246.797,260.992,90.334
745,13168.8,245.7,259.813,89.7012
757,13381.2,244.606,258.646,88.7281
769,13593.6,243.521,257.486,87.8312
781,13806,242.4434,256.335,86.922
793,14018.4,241.374,255.193,86.1743
805,14230.8,240.314,254.059,85.1071
817,14443.2,239.262,252.936,84.38661
829,14655.6,238.219,251.819,83.5219
841,14868,237.183,250.711,83.1
853,15080.4,236.158,249.612,82.3603
865,15292.8,235.141,248.522,81.76788
877,15505.2,234.133,247.44,81.1278
889,15717.6,233.134,246.366,80.45412
901,15930,232.144,245.301,79.2966
913,16142.4,231.163,244.245,79.1112
925,16354.8,230.191,243.197,78.1844
937,16567.2,229.226,242.158,77.2772
949,16779.6,228.266,241.1262,76.147
961,16992,227.317,240.103,192.307
973,17204.4,226.376,239.102,410.351
985,17416.8,225.447,238.104,316.615
997,17629.2,224.53,237.11,238.955
1009,17841.6,223.62,236.124,187.263
1021,18054,222.717,235.142,155.333
1033,18266.4,221.825,234.169,134.42
1045,18478.8,220.94,233.204,121.037
1057,18691.2,220.06,232.246,111.871
1069,18903.6,219.187,231.297,104.392
1081,19116,218.318,230.355,98.8879
1093,19328.4,217.454,229.421,94.708
1105,19540.8,216.596,228.493,90.1128
1117,19753.2,215.747,227.574,86.6523
1129,19965.6,214.909,226.661,84.0495
1141,20178,214.078,225.755,81.1543
1153,20390.4,213.257,224.857,78.1756
1165,20602.8,212.444,223.969,75.4591
1177,20815.2,211.64,223.086,73.0351
1189,21027.6,210.841,222.211,71.307
1201,21240,210.047,221.344,69.4377
1213,21452.4,209.261,220.484,67.4685
1225,21664.8,208.482,219.632,65.2933
1237,21877.2,207.707,218.787,63.4301
1249,22089.6,206.938,217.948,61.7519
1261,22302,206.176,217.116,60.5729
1273,22514.4,205.42,216.292,59.1185
1285,22726.8,204.668,215.475,57.3222
1297,22939.2,203.92,214.663,56.4998
1309,23151.6,203.176,213.856,55.0952
1321,23364,202.438,213.056,54.16022
1333,23576.4,201.705,212.262,52.8123
1345,23788.8,200.977,211.474,52.1726
1357,24001.2,200.254,210.692,50.9652
1369,24213.6,199.538,209.915,49.9394
1381,24426,198.828,209.144,49.233
1393,24638.4,198.123,208.38,48.3105
1405,24850.8,197.424,207.621,47.4816
1417,25063.2,196.732,206.867,46.2013
1429,25275.6,196.047,206.12,45.19748
1441,25488,195.369,205.378,44.5292
1453,25700.4,194.697,204.643,43.4144
1465,25912.8,194.032,203.914,42.2311
1477,26125.2,193.375,203.189,40.9449
1489,26337.6,192.723,202.472,39.9675
1501,26550,192.074,201.76,40.1993
1513,26762.4,191.43,201.054,39.3143
1525,26974.8,190.791,200.353,38.7243
1537,27187.2,190.158,199.658,38.4683
1549,27399.6,189.53,198.969,37.8463
1561,27612,188.906,198.285,37.198
1573,27824.4,188.286,197.607,36.1851
1585,28036.8,187.671,196.933,35.5856
1597,28249.2,187.063,196.265,35.001
1609,28461.6,186.457,195.602,34.6713
1621,28674,185.858,194.946,33.4462
1633,28886.4,185.262,194.292,32.9167
1645,29098.8,184.672,193.645,32.8985
1657,29311.2,184.085,193.003,32.0057
1669,29523.6,183.504,192.365,31.8763
1681,29736,182.927,191.733,31.26098
1693,29948.4,182.354,191.104,30.8622
1705,30160.8,181.787,190.481,30.5296
1717,30373.2,181.223,189.863,29.8809
1729,30585.6,180.664,189.25,29.1415
1741,30798,180.108,188.642,28.4701
1753,31010.4,179.557,188.037,28.0872
1765,31222.8,179.009,187.437,28.0886
1777,31435.2,178.465,186.843,27.575
1789,31647.6,177.926,186.252,26.7045
1801,31860,177.393,185.666,26.0008
1813,32072.4,176.861,185.084,26.2314
1825,32284.8,176.335,184.505,26.0525
1837,32497.2,175.81,183.933,25.2991
1849,32709.6,175.289,183.363,25.0629
1861,32922,174.773,182.799,24.6352
1873,33134.4,174.262,182.238,24.1105
1885,33346.8,173.7573,181.681,24.243
1897,33559.2,173.257,181.129,23.63276
1909,33771.6,172.759,180.581,23.7033
1921,33984,172.266,180.038,23.338
1933,34196.4,171.777,179.497,22.9644
1945,34408.8,171.292,178.962,22.6012
1957,34621.2,170.81,178.431,22.2555
1969,34833.6,170.331,177.904,21.6518
1981,35046,169.853,177.381,21.4776
1993,35258.4,169.378,176.861,21.439
2005,35470.8,168.906,176.345,21.5131
2017,35683.2,168.438,175.833,21.0075
2029,35895.6,167.976,175.323,20.7494
2041,36108,167.515,174.819,20.3614
2053,36320.4,167.058,174.317,19.9356
2065,36532.8,166.604,173.82,19.863
2077,36745.2,166.154,173.325,19.9743
2089,36957.6,165.704,172.834,19.6763
2101,37170,165.257,172.346,19.5892
2113,37382.4,164.812,171.862,19.5866
2125,37594.8,164.37,171.382,18.8374
2137,37807.2,163.931,170.904,18.7323
2149,38019.6,163.495,170.429,18.4723
2161,38232,163.063,169.957,18.5165
2173,38444.4,162.633,169.489,18.176
2185,38656.8,162.207,169.023,17.7719
2197,38869.2,161.782,168.562,17.51656
2209,39081.6,161.36,168.103,17.3891
2221,39294,160.943,167.647,17.1563
2233,39506.4,160.529,167.194,17.00146
2245,39718.8,160.118,166.744,16.8377
2257,39931.2,159.707,166.296,16.8528
2269,40143.6,159.301,165.852,16.8821
2281,40356,158.899,165.411,16.786
2293,40568.4,158.502,164.974,16.5017
2305,40780.8,158.108,164.539,16.5037
2317,40993.2,157.716,164.107,16.365
2329,41205.6,157.327,163.678,16.63295
2341,41418,156.941,163.253,16.1211
2353,41630.4,156.554,162.83,15.7024
2365,41842.8,156.171,162.411,15.54454
2377,42055.2,155.787,161.993,15.7352
2389,42267.6,155.406,161.579,15.5664
2401,42480,155.03,161.167,15.3703
2413,42692.4,154.657,160.758,15.1592
2425,42904.8,154.288,160.352,14.9624
2437,43117.2,153.922,159.948,14.7225
2449,43329.6,153.56,159.547,14.3951
2461,43542,153.201,159.151,14.3726
2473,43754.4,152.847,158.756,14.3731
2485,43966.8,152.497,158.365,14.1637
2497,44179.2,152.147,157.977,13.8445
2509,44391.6,151.8,157.591,13.5184
2521,44604,151.454,157.207,13.23
2533,44816.4,151.109,156.828,13.1362
2545,45028.8,150.767,156.45,13.3685
2557,45241.2,150.428,156.075,13.434
2569,45453.6,150.091,155.703,13.1986
2581,45666,149.755,155.334,13.1136
2593,45878.4,149.424,154.966,12.9734
2605,46090.8,149.095,154.602,12.828
2617,46303.2,148.768,154.24,12.6836
2629,46515.6,148.441,153.881,12.3354
2641,46728,148.117,153.524,12.4094
2653,46940.4,147.795,153.17,12.4397
2665,47152.8,147.474,152.818,12.2163
2677,47365.2,147.157,152.469,12.26004
2689,47577.6,146.843,152.121,11.8819
2701,47790,146.529,151.777,11.7833
2713,48002.4,146.22,151.434,11.5726
2725,48214.8,145.91,151.093,11.5644
2737,48427.2,145.601,150.755,11.6591
2749,48639.6,145.281,150.419,11.6729
2761,48852,144.949,150.084,11.2955
2773,49064.4,144.611,149.748,11.2335
2785,49276.8,144.277,149.413,10.9775
2797,49489.2,143.95,149.078,10.8151
2809,49701.6,143.633,148.744,11.0409
2821,49914,143.326,148.412,11.0615
2833,50126.4,143.032,148.082,10.8667
2845,50338.8,142.746,147.754,11.0271
2857,50551.2,142.464,147.43,10.8275
2869,50763.6,142.188,147.11,10.7268
2881,50976,141.915,146.791,10.6117
2893,51188.4,141.645,146.477,10.44913
2905,51400.8,141.377,146.166,10.4487
2917,51613.2,141.111,145.857,10.3097
2929,51825.6,140.846,145.551,10.18594
2941,52038,140.58,145.249,9.976722
2953,52250.4,140.315,144.948,9.828278
2965,52462.8,140.05,144.65,9.547616
2977,52675.2,139.786,144.355,9.503716
2989,52887.6,139.523,144.061,9.292175
3001,53100,139.263,143.77,9.609446
3013,53312.4,139.004,143.48,9.463256
3025,53524.8,138.749,143.194,9.528686
3037,53737.2,138.494,142.909,9.401369
3049,53949.6,138.239,142.626,9.266478
3061,54162,137.985,142.345,9.052305
3073,54374.4,137.734,142.066,8.891099
3085,54586.8,137.485,141.79,8.790774
3097,54799.2,137.238,141.514,8.778551
3109,55011.6,136.99,141.241,8.854238
3121,55224,136.743,140.969,8.694167
3133,55436.4,136.494,140.7,8.503445
3145,55648.8,136.246,140.432,8.540479
3157,55861.2,135.995,140.165,8.58456
3169,56073.6,135.746,139.899,8.470311
3181,56286,135.502,139.634,8.311741
3193,56498.4,135.263,139.372,8.145133
3205,56710.8,135.026,139.11,8.354541
3217,56923.2,134.789,138.851,8.378156
3229,57135.6,134.555,138.593,8.180895
3241,57348,134.323,138.336,8.044017
3253,57560.4,134.09,138.081,7.982359
3265,57772.8,133.857,137.827,7.860957
3277,57985.2,133.63,137.576,7.644162
3289,58197.6,133.405,137.326,7.751293
3301,58410,133.182,137.078,7.851576
3313,58622.4,132.963,136.832,7.642415
3325,58834.8,132.746,136.587,7.60647
3337,59047.2,132.532,136.345,7.445263
3349,59259.6,132.32,136.104,7.408318
3361,59472,132.109,135.865,7.457815
3373,59684.4,131.903,135.628,7.211814
3385,59896.8,131.698,135.393,7.245685
3397,60109.2,131.493,135.16,7.22844
3409,60321.6,131.289,134.929,7.13622
3421,60534,131.087,134.7,7.07907
3433,60746.4,130.884,134.473,6.966618
3445,60958.8,130.681,134.248,6.975043
3457,61171.2,130.476,134.024,6.922379
3469,61383.6,130.272,133.801,6.875685
3481,61596,130.07,133.579,6.821096
3493,61808.4,129.866,133.359,6.897486
3505,62020.8,129.652,133.139,6.778128
3517,62233.2,129.436,132.92,6.694436
3529,62445.6,129.226,132.701,6.684959
3541,62658,129.02,132.482,6.537184
3553,62870.4,128.815,132.265,6.473582
3565,63082.8,128.616,132.049,6.355317
3577,63295.2,128.421,131.834,6.354704
3589,63507.6,128.231,131.621,6.437571
3601,63720,128.044,131.409,6.478386
3613,63932.4,127.857,131.198,6.328215
3625,64144.8,127.672,130.989,6.286157
3637,64357.2,127.491,130.783,6.205072
3649,64569.6,127.308,130.577,6.185239
3661,64782,127.129,130.374,6.044676
3673,64994.4,126.947,130.171,6.095927
3685,65206.8,126.765,129.971,5.951292
3697,65419.2,126.582,129.771,5.890725
3709,65631.6,126.401,129.572,5.764077
3721,65844,126.223,129.374,5.777852
3733,66056.4,126.049,129.178,5.80889
3745,66268.8,125.878,128.984,5.690353
3757,66481.2,125.71,128.792,5.645415
3769,66693.6,125.544,128.6,5.642428
3781,66906,125.378,128.411,5.625876
3793,67118.4,125.214,128.223,5.615614
3805,67330.8,125.0483,128.0371,5.456195
3817,67543.2,124.882,127.851,5.325718
3829,67755.6,124.716,127.668,5.299167
3841,67968,124.553,127.485,5.262588
3853,68180.4,124.388,127.304,5.266909
3865,68392.8,124.221,127.124,5.220714
3877,68605.2,124.056,126.945,5.16382
3889,68817.6,123.891,126.765,5.132961
3901,69030,123.73,126.588,5.100865
3913,69242.4,123.571,126.411,5.038881
3925,69454.8,123.412,126.236,4.958558
3937,69667.2,123.257,126.061,4.887015
3949,69879.6,123.102,125.889,4.870321
3961,70092,122.948,125.718,4.812148
3973,70304.4,122.794,125.547,4.819975
3985,70516.8,122.638,125.378,4.765503
3997,70729.2,122.481,125.209,4.724107
4009,70941.6,122.324,125.041,4.743323
4021,71154,122.168,124.875,4.721185
4033,71366.4,122.011,124.7078,4.659856
4045,71578.8,121.856,124.542,4.599793
4057,71791.2,121.701,124.377,4.619165
4069,72003.6,121.552,124.213,4.560296
4081,72216,121.403,124.05,4.523353
4093,72428.4,121.255,123.887,4.496801
4105,72640.8,121.108,123.726,4.419437
4117,72853.2,120.961,123.565,4.381043
4129,73065.6,120.817,123.405,4.339157
4141,73278,120.676,123.247,4.317029
4153,73490.4,120.537,123.09,4.311914
4165,73702.8,120.392,122.933,4.27774
4177,73915.2,120.244,122.778,4.272791
4189,74127.6,120.099,122.623,4.26301
4201,74340,119.96,122.469,4.205748
4213,74552.4,119.826,122.316,4.160945
4225,74764.8,119.696,122.165,4.07452
4237,74977.2,119.57,122.014,3.960992
4249,75189.6,119.445,121.865,3.923165
4261,75402,119.322,121.718,3.920545
4273,75614.4,119.199,121.573,3.887995
4285,75826.8,119.077,121.429,3.906835
4297,76039.2,118.955,121.286,3.806513
4309,76251.6,118.832,121.145,3.770796
4321,76464,118.715,121.005,3.722597
4333,76676.4,118.601,120.867,3.683509
4345,76888.8,118.49,120.729,3.60013
4357,77101.2,118.38,120.594,3.559921
4369,77313.6,118.268,120.461,3.541297
4381,77526,118.156,120.329,3.467604
4393,77738.4,118.048,120.198,3.408546
4405,77950.8,117.939,120.068,3.35863
4417,78163.2,117.833,119.94,3.337926
4429,78375.6,117.724,119.814,3.327309
4441,78588,117.614,119.689,3.296317
4453,78800.4,117.506,119.565,3.2341
4465,79012.8,117.401,119.441,3.18052
4477,79225.2,117.296,119.318,3.086311
4489,79437.6,117.192,119.198,3.579139
4501,79650,117.08,119.078,3.294399
4513,79862.4,116.966,118.958,3.152382
4525,80074.8,116.855,118.838,3.104865
4537,80287.2,116.75,118.72,3.021548
4549,80499.6,116.647,118.603,2.986712
4561,80712,116.546,118.486,2.932761
4573,80924.4,116.443,118.37,2.898063
4585,81136.8,116.341,118.255,2.852424
4597,81349.2,116.243,118.141,2.81201
4609,81561.6,116.145,118.028,2.76973
4621,81774,116.044,117.916,2.742386
4633,81986.4,115.942,117.804,2.731484
4645,82198.8,115.836,117.693,2.697275
4657,82411.2,115.721,117.582,2.681887
4669,82623.6,115.6,117.47,2.671222
4681,82836,115.484,117.359,2.650197
4693,83048.4,115.377,117.247,2.651308
4705,83260.8,115.279,117.136,2.627857
4717,83473.2,115.185,117.025,2.587203
4729,83685.6,115.085,116.916,2.579054
4741,83898,114.988,116.807,2.543902
4753,84110.4,114.9,116.699,2.497411
4765,84322.8,114.824,116.593,2.473382
4777,84535.2,114.747,116.489,2.40533
4789,84747.6,114.66,116.386,2.362719
4801,84960,114.565,116.285,2.332228
4813,85172.4,114.475,116.182,2.327012
4825,85384.8,114.388,116.082,2.286903
4837,85597.2,114.299,115.982,2.260147
4849,85809.6,114.213,115.883,2.227378
4861,86022,114.132,115.785,2.202611
4873,86234.4,114.048,115.688,2.173619
4885,86446.8,113.966,115.592,2.151739
4897,86659.2,113.889,115.497,2.11367
4909,86871.6,113.811,115.403,2.082424
4921,87084,113.733,115.31,2.045126
4933,87296.4,113.662,115.217,2.00238
4945,87508.8,113.595,115.128,1.962543
4957,87721.2,113.532,115.039,1.916647
4969,87933.6,113.471,114.952,1.883882
4981,88146,113.404,114.866,1.836336
4993,88358.4,113.338,114.782,1.789316
5005,88570.8,113.275,114.698,1.764493
5017,88783.2,113.21,114.617,1.712235
5029,88995.6,113.148,114.536,1.665933
5041,89208,113.092,114.456,1.623474
5053,89420.4,113.036,114.379,1.584867
5065,89632.8,112.982,114.302,1.535052
5077,89845.2,112.931,114.227,1.474909
5089,90057.6,112.88,114.153,1.441553
5101,90270,112.825,114.082,1.401199
5113,90482.4,112.765,114.01,1.357785
5125,90694.8,112.708,113.94,1.318846
5137,90907.2,112.648,113.87,1.302251
5149,91119.6,112.59,113.801,1.266262
5161,91332,112.54,113.733,1.260509
5173,91544.4,112.492,113.666,1.229294
5185,91756.8,112.445,113.601,1.201677
5197,91969.2,112.4,113.536,1.159774
5209,92181.6,112.351,113.473,1.134814
5221,92394,112.302,113.411,1.094949
5233,92606.4,112.259,113.35,1.080244
5245,92818.8,112.217,113.29,1.046684
5257,93031.2,112.177,113.231,1.01795
5269,93243.6,112.138,113.173,0.975809
5281,93456,112.098,113.116,0.949743
5293,93668.4,112.057,113.061,0.911782
5305,93880.8,112.016,113.007,0.893873
5317,94093.2,111.971,112.952,0.86834
5329,94305.6,111.926,112.899,0.836688
5341,94518,111.886,112.846,0.828775
5353,94730.4,111.848,112.795,0.800733
5365,94942.8,111.809,112.743,0.78517
5377,95155.2,111.774,112.693,0.761966
5389,95367.6,111.735,112.644,0.735682
5401,95580,111.696,112.596,0.709993
5413,95792.4,111.657,112.548,0.692221
5425,96004.8,111.615,112.5,0.679935
5437,96217.2,111.573,112.453,0.658774
5449,96429.6,111.533,112.406,0.650744
5461,96642,111.493,112.36,0.635671
5473,96854.4,111.455,112.314,0.620893
5485,97066.8,111.418,112.268,0.615895
5497,97279.2,111.379,112.223,0.598342
5509,97491.6,111.342,112.179,0.579246
5521,97704,111.308,112.135,0.573301
5533,97916.4,111.274,112.092,0.54499
5545,98128.8,111.242,112.049,0.543319
5557,98341.2,111.212,112.007,0.521411
5569,98553.6,111.181,111.966,0.496118
5581,98766,111.152,111.926,0.476938
5593,98978.4,111.123,111.886,0.461427
5605,99190.8,111.092,111.847,0.45051
5617,99403.2,111.063,111.808,0.423008
5629,99615.6,111.03,111.77,0.413606
5641,99828,110.998,111.732,0.398056
5653,100040.4,110.967,111.695,0.383722
5665,100252.8,110.936,111.658,0.377064
5677,100465.2,110.906,111.622,0.364561
5689,100677.6,110.879,111.585,0.35574
5701,100890,110.85,111.55,0.341683
5713,101102.4,110.821,111.515,0.325467
5725,101314.8,110.793,111.48,0.325549
5737,101527.2,110.764,111.445,0.295776
5749,101739.6,110.736,111.411,0.303545
5761,101952,110.707,111.378,0.292225
5773,102164.4,110.678,111.345,0.275971
5785,102376.8,110.652,111.311,0.272342
5797,102589.2,110.622,111.279,0.260079
5809,102801.6,110.593,111.247,0.259832
5821,103014,110.565,111.214,0.244787
5833,103226.4,110.536,111.182,0.239293
5845,103438.8,110.507,111.15,0.236265
5857,103651.2,110.477,111.119,0.219968
5869,103863.6,110.445,111.087,0.221561
5881,104076,110.411,111.056,0.212353
5893,104288.4,110.377,111.024,0.226603
5905,104500.8,110.339,110.992,0.223877
5917,104713.2,110.302,110.959,0.221768
5929,104925.6,110.265,110.926,0.237887
5941,105138,110.226,110.894,0.231145
5953,105350.4,110.191,110.86,0.241092
5965,105562.8,110.156,110.827,0.251353
5977,105775.2,110.118,110.793,0.250488
5989,105987.6,110.083,110.76,0.260447
6001,106200,110.056,110.726,0.25092
6013,106412.4,110.039,110.692,0.254695
6025,106624.8,110.301,110.665,0.171481
6037,106837.2,110.888,110.663,-0.117934
6049,107049.6,111.449,110.695,-0.652664
6061,107262,111.893,110.757,-1.264213
6073,107474.4,112.263,110.839,-1.830104
6085,107686.8,112.606,110.939,-2.32736
6097,107899.2,112.951,111.055,-2.761839
6109,108111.6,113.305,111.185,-3.133578
6121,108324,113.661,111.329,-3.494394
6133,108536.4,114.018,111.486,-3.828555
6145,108748.8,114.373,111.657,-4.146212
6157,108961.2,114.727,111.839,-4.451657
6169,109173.6,115.083,112.031,-4.728062
6181,109386,115.438,112.234,-4.994471
6193,109598.4,115.792,112.446,-5.250587
6205,109810.8,116.149,112.667,-5.493688
6217,110023.2,116.505,112.897,-5.7235
6229,110235.6,116.858,113.135,-5.936712
6241,110448,117.214,113.379,-6.156829
6253,110660.4,117.5707,113.631,-6.354666
6265,110872.8,117.924,113.888,-6.54913
6277,111085.2,118.277,114.152,-6.735946
6289,111297.6,118.631,114.422,-6.913678
6301,111510,118.983,114.697,-7.089307
6313,111722.4,119.338,114.976,-7.258381
6325,111934.8,119.695,115.26,-7.434363
6337,112147.2,120.049,115.55,-7.608184
6349,112359.6,120.405,115.841,-7.783303
6361,112572,120.757,116.138,-7.941404
6373,112784.4,121.108,116.437,-8.118361
6385,112996.8,121.463,116.739,-8.30247
6397,113209.2,121.82,117.046,-8.498009
6409,113421.6,122.175,117.355,-8.706246
6421,113634,122.531,117.666,-8.915228
6433,113846.4,122.883,117.981,-9.149096
6445,114058.8,123.236,118.297,-9.399506
6457,114271.2,123.592,118.615,-9.683013
6469,114483.6,123.947,118.936,-9.985402
6481,114696,124.3,119.258,-10.3331
6493,114908.4,124.655,119.5828,-10.7065
6505,115120.8,125.01,119.909,-11.0986
6517,115333.2,125.362,120.236,-11.4974
6529,115545.6,125.717,120.566,-11.892
6541,115758,126.072,120.896,-12.2702
6553,115970.4,126.423,121.228,-12.5403
6565,116182.8,126.777,121.561,-12.6815
6577,116395.2,127.132,121.894,-12.6357
6589,116607.6,127.487,122.229,-12.44655
6601,116820,127.842,122.565,-12.17797
6613,117032.4,128.196,122.902,-11.9028
6625,117244.8,128.547,123.241,-11.6967
6637,117457.2,128.9,123.579,-11.5801
6649,117669.6,129.257,123.919,-11.5247
6661,117882,129.611,124.259,-11.4935
6673,118094.4,129.966,124.601,-11.496
6685,118306.8,130.321,124.941,-11.5174
6697,118519.2,130.674,125.283,-11.5286
6709,118731.6,131.027,125.626,-11.5425
6721,118944,131.382,125.969,-11.5623
6733,119156.4,131.735,126.313,-11.5957
6745,119368.8,132.088,126.657,-11.62247
6757,119581.2,132.444,127.002,-11.64391
6769,119793.6,132.797,127.347,-11.6664
6781,120006,133.152,127.692,-11.6847
6793,120218.4,133.507,128.037,-11.6993
6805,120430.8,133.859,128.383,-11.7362
6817,120643.2,134.21,128.73,-11.7565
6829,120855.6,134.565,129.075,-11.7762
6841,121068,134.922,129.422,-11.8016
6853,121280.4,135.279,129.77,-11.8135
6865,121492.8,135.634,130.118,-11.8474
6877,121705.2,135.987,130.466,-11.865
6889,121917.6,136.341,130.814,-11.9074
6901,122130,136.695,131.163,-11.9234
6913,122342.4,137.048,131.511,-11.9551
6925,122554.8,137.401,131.86,-11.9622
6937,122767.2,137.755,132.209,-11.98
6949,122979.6,138.109,132.558,-11.9996
6961,123192,138.464,132.907,-12.0168
6973,123404.4,138.818,133.258,-12.0495
6985,123616.8,139.171,133.607,-12.061
6997,123829.2,139.526,133.957,-12.0901
7009,124041.6,139.878,134.307,-12.0946
7021,124254,140.233,134.656,-12.11997
7033,124466.4,140.587,135.007,-12.1287
7045,124678.8,140.94,135.356,-12.1516
7057,124891.2,141.292,135.707,-12.16713
7069,125103.6,141.641,136.058,-12.1625
7081,125316,141.989,136.406,-12.1695
7093,125528.4,142.346,136.754,-12.1708
7105,125740.8,142.707,137.104,-12.185
7117,125953.2,143.069,137.453,-12.1949
7129,126165.6,143.418,137.803,-12.2279
7141,126378,143.764,138.152,-12.248
7153,126590.4,144.115,138.5,-12.2415
7165,126802.8,144.473,138.849,-12.23463
7177,127015.2,144.835,139.199,-12.2521
7189,127227.6,145.195,139.548,-12.2742
7201,127440,145.549,139.899,-12.30197
7213,127652.4,145.9,140.25,-12.3208
7225,127864.8,146.254,140.601,-12.3402
7237,128077.2,146.612,140.952,-12.3621
7249,128289.6,146.966,141.303,-12.3724
7261,128502,147.311,141.655,-12.3899
7273,128714.4,147.66,142.007,-12.3889
7285,128926.8,148.014,142.357,-12.3853
7297,129139.2,148.373,142.708,-12.3633
7309,129351.6,148.728,143.059,-12.3534
7321,129564,149.077,143.41,-12.3334
7333,129776.4,149.428,143.761,-12.2908
7345,129988.8,149.784,144.111,-12.2157
7357,130201.2,150.145,144.463,-12.1313
7369,130413.6,150.506,144.814,-12.0173
7381,130626,150.862,145.167,-11.865
7393,130838.4,151.208,145.52,-11.6413
7405,131050.8,151.556,145.872,-11.3056
7417,131263.2,151.911,146.224,-10.8522
7429,131475.6,152.271,146.577,-10.2337
7441,131688,152.631,146.93,-9.440163
7453,131900.4,152.988,147.283,-8.391353
7465,132112.8,153.34,147.638,-7.006443
7477,132325.2,153.687,147.993,-5.212303
7489,132537.6,154.034,148.346,-2.87891
7501,132750,154.386,148.7,0.088308
7513,132962.4,154.745,149.054,3.850404
7525,133174.8,155.105,149.407,8.528462
7537,133387.2,155.462,149.762,14.2505
7549,133599.6,155.815,150.118,21.1578
7561,133812,156.168,150.474,29.2313
7573,134024.4,156.515,150.831,38.1886
7585,134236.8,156.862,151.186,47.3956
7597,134449.2,157.214,151.541,55.7449
7609,134661.6,157.572,151.897,61.6803
7621,134874,157.934,152.252,63.6789
7633,135086.4,158.293,152.609,60.94249
7645,135298.8,158.65,152.965,53.8524
7657,135511.2,159,153.32,43.8657
7669,135723.6,159.344,153.675,32.8904
7681,135936,159.694,154.03,22.4556
7693,136148.4,160.051,154.382,13.5055
7705,136360.8,160.41,154.734,6.36864
7717,136573.2,160.769,155.087,1.023863
7729,136785.6,161.121,155.441,-2.799118
7741,136998,161.472,155.793,-5.394849
7753,137210.4,161.825,156.146,-7.097369
7765,137422.8,162.179,156.498,-8.137156
7777,137635.2,162.532,156.851,-8.773052
7789,137847.6,162.886,157.204,-9.137108
7801,138060,163.242,157.557,-9.375075
7813,138272.4,163.603,157.911,-9.522627
7825,138484.8,163.96,158.265,-9.671655
7837,138697.2,164.311,158.619,-9.760864
7849,138909.6,164.663,158.973,-9.858831
7861,139122,165.017,159.326,-9.940262
7873,139334.4,165.374,159.682,-9.995512
7885,139546.8,165.725,160.037,-10.06474
7897,139759.2,166.075,160.391,-10.1026
7909,139971.6,166.429,160.747,-10.1331
7921,140184,166.788,161.101,-10.1438
7933,140396.4,167.141,161.457,-10.18918
7945,140608.8,167.492,161.811,-10.2496
7957,140821.2,167.846,162.166,-10.2843
7969,141033.6,168.202,162.521,-10.3026
7981,141246,168.559,162.876,-10.335
7993,141458.4,168.908,163.232,-10.3363
8005,141670.8,169.259,163.586,-10.3424
8017,141883.2,169.614,163.942,-10.3847
8029,142095.6,169.973,164.297,-10.4253
8041,142308,170.325,164.652,-10.4323
8053,142520.4,170.677,165.007,-10.4569
8065,142732.8,171.03,165.361,-10.4893
8077,142945.2,171.387,165.716,-10.5186
8089,143157.6,171.742,166.072,-10.5808
8101,143370,172.092,166.428,-10.6375
8113,143582.4,172.445,166.783,-10.6542
8125,143794.8,172.802,167.138,-10.736
8137,144007.2,173.159,167.494,-10.8153
8149,144219.6,173.509,167.849,-10.94822
8161,144432,173.859,168.204,-11.003
8173,144644.4,174.213,168.558,-11.1947
8185,144856.8,174.568,168.912,-11.2897
8197,145069.2,174.919,169.267,-11.5283
8209,145281.6,175.271,169.621,-11.7503
8221,145494,175.627,169.975,-11.96
8233,145706.4,175.986,170.329,-11.0518
8245,145918.8,176.345,170.684,-10.7352
8257,146131.2,176.701,171.038,-10.4049
8269,146343.6,177.053,171.393,-10.5092
8281,146556,177.404,171.748,-10.4836
8293,146768.4,177.757,172.103,-10.615
8305,146980.8,178.108,172.458,-10.7109
8317,147193.2,178.461,172.813,-10.8115
8329,147405.6,178.817,173.167,-10.80563
8341,147618,179.174,173.521,-10.9544
8353,147830.4,179.531,173.876,-11.1461
8365,148042.8,179.888,174.232,-11.2202
8377,148255.2,180.241,174.587,-11.5011
8389,148467.6,180.59,174.942,-12.0078
8401,148680,180.941,175.297,-13.1701
8413,148892.4,181.297,175.652,-16.6776
8425,149104.8,181.655,176.007,-29.7542
8437,149317.2,182.012,176.36,-58.09268
8449,149529.6,182.367,176.714,-98.3404
8461,149742,182.72,177.066,-141.563
8473,149954.4,183.074,177.416,-173.774
8485,150166.8,183.424,177.767,-192.019
8497,150379.2,183.774,178.117,-201.745
8509,150591.6,184.128,178.467,-186.976
8521,150804,184.485,178.821,-97.29019
8533,151016.4,184.836,179.178,-50.942
8545,151228.8,185.19,179.536,-31.0935
8557,151441.2,185.547,179.893,-22.4652
8569,151653.6,185.902,180.252,-18.6583
8581,151866,186.258,180.609,-17.0462
8593,152078.4,186.612,180.968,-16.4893
8605,152290.8,186.959,181.326,-16.2429
8617,152503.2,187.311,181.683,-16.1767
8629,152715.6,187.665,182.039,-16.05586
8641,152928,188.022,182.396,-16.0688
8653,153140.4,188.381,182.753,-16.0551
8665,153352.8,188.738,183.111,-16.1599
8677,153565.2,189.088,183.468,-16.2219
8689,153777.6,189.437,183.824,-16.293
8701,153990,189.79,184.181,-16.2652
8713,154202.4,190.145,184.537,-16.1829
8725,154414.8,190.502,184.893,-16.0643
8737,154627.2,190.861,185.25,-16.2382
8749,154839.6,191.217,185.608,-16.2826
8761,155052,191.568,185.965,-16.3673
8773,155264.4,191.916,186.321,-16.40744
8785,155476.8,192.267,186.677,-16.4826
8797,155689.2,192.623,187.033,-16.4388
8809,155901.6,192.978,187.389,-16.51909
8821,156114,193.335,187.745,-16.5483
8833,156326.4,193.689,188.101,-16.5772
8845,156538.8,194.045,188.457,-16.784
8857,156751.2,194.401,188.814,-16.7322
8869,156963.6,194.756,189.171,-16.6632
8881,157176,195.111,189.528,-16.7576
8893,157388.4,195.461,189.886,-16.9107
8905,157600.8,195.807,190.242,-16.9225
8917,157813.2,196.16,190.597,-17.0313
8929,158025.6,196.516,190.953,-17.0371
8941,158238,196.872,191.309,-17.22296
8953,158450.4,197.229,191.665,-17.0875
8965,158662.8,197.584,192.021,-17.0246
8977,158875.2,197.939,192.377,-17.1275
8989,159087.6,198.295,192.734,-17.1455
9001,159300,198.649,193.091,-17.2844
9013,159512.4,198.997,193.447,-17.336
9025,159724.8,199.347,193.804,-17.3381
9037,159937.2,199.702,194.159,-17.4769
9049,160149.6,200.059,194.516,-17.5742
9061,160362,200.417,194.871,-17.5601
9073,160574.4,200.771,195.228,-17.6268
9085,160786.8,201.122,195.584,-17.7369
9097,160999.2,201.474,195.94,-17.76571
9109,161211.6,201.826,196.294,-17.7513
9121,161424,202.18,196.65,-17.7554
9133,161636.4,202.534,197.005,-17.8915
9145,161848.8,202.888,197.361,-17.9999
9157,162061.2,203.243,197.716,-18.0788
9169,162273.6,203.6,198.072,-18.1367
9181,162486,203.958,198.427,-18.228
9193,162698.4,204.313,198.783,-18.3079
9205,162910.8,204.666,199.139,-18.3246
9217,163123.2,205.017,199.496,-18.3709
9229,163335.6,205.369,199.851,-18.2868
9241,163548,205.724,200.207,-18.2907
9253,163760.4,206.078,200.563,-18.4125
9265,163972.8,206.431,200.919,-18.5063
9277,164185.2,206.787,201.275,-18.4977
9289,164397.6,207.145,201.631,-18.5008
9301,164610,207.501,201.989,-18.5103
9313,164822.4,207.849,202.345,-18.8007
9325,165034.8,208.2,202.701,-19.0528
9337,165247.2,208.554,203.057,-19.0768
9349,165459.6,208.907,203.413,-18.9072
9361,165672,209.266,203.769,-19.03327
9373,165884.4,209.619,204.125,-19.21085
9385,166096.8,209.971,204.481,-19.1887
9397,166309.2,210.323,204.836,-19.4253
9409,166521.6,210.678,205.192,-19.5592
9421,166734,211.034,205.547,-19.5923
9433,166946.4,211.39,205.903,-19.5561
9445,167158.8,211.745,206.259,-19.7208
9457,167371.2,212.101,206.615,-19.964
9469,167583.6,212.455,206.972,-20.0144
9481,167796,212.806,207.329,-20.05429
9493,168008.4,213.155,207.685,-20.2087
9505,168220.8,213.51,208.041,-20.1658
9517,168433.2,213.867,208.396,-20.2967
9529,168645.6,214.226,208.753,-20.299
9541,168858,214.583,209.109,-20.4681
9553,169070.4,214.935,209.466,-20.5904
9565,169282.8,215.288,209.824,-20.4227
9577,169495.2,215.64,210.182,-20.5634
9589,169707.6,215.99,210.539,-20.7943
9601,169920,216.344,210.896,-20.9356
9613,170132.4,216.701,211.253,-21.0659
9625,170344.8,217.056,211.609,-21.1421
9637,170557.2,217.408,211.966,-21.3364
9649,170769.6,217.758,212.323,-21.445
9661,170982,218.11,212.679,-21.5376
9673,171194.4,218.463,213.036,-21.6912
9685,171406.8,218.818,213.391,-21.82525
9697,171619.2,219.174,213.747,-21.758
9709,171831.6,219.532,214.102,-21.8781
9721,172044,219.89,214.458,-21.9657
9733,172256.4,220.246,214.815,-22.2137
9745,172468.8,220.599,215.173,-22.2053
9757,172681.2,220.951,215.529,-22.5123
9769,172893.6,221.304,215.886,-22.64061
9781,173106,221.657,216.244,-22.76967
9793,173318.4,222.01,216.601,-22.95153
9805,173530.8,222.364,216.958,-23.07691
9817,173743.2,222.717,217.316,-23.32496
9829,173955.6,223.073,217.672,-23.3
9841,174168,223.426,218.029,-23.1985
9853,174380.4,223.781,218.385,-23.2989
9865,174592.8,224.134,218.743,-23.584
9877,174805.2,224.49,219.099,-23.8414
9889,175017.6,224.845,219.457,-24.0356
9901,175230,225.199,219.814,-24.214
9913,175442.4,225.551,220.171,-24.1964
9925,175654.8,225.903,220.528,-24.4444
9937,175867.2,226.257,220.885,-24.6609
9949,176079.6,226.611,221.2424,-24.7174
9961,176292,226.964,221.599,-24.9133
9973,176504.4,227.318,221.955,-25.12
9985,176716.8,227.672,222.311,-25.0707
9997,176929.2,228.026,222.668,-25.1118
10009,177141.6,228.381,223.025,-25.50367
10021,177354,228.735,223.382,-25.7244
10033,177566.4,229.089,223.737,-25.8258
10045,177778.8,229.443,224.095,-26.11022
10057,177991.2,229.798,224.45,-26.3086
10069,178203.6,230.152,224.807,-26.5385
10081,178416,230.507,225.163,-26.8122
10093,178628.4,230.861,225.519,-26.8491
10105,178840.8,231.215,225.876,-27.0992
10117,179053.2,231.568,226.233,-27.2731
10129,179265.6,231.922,226.589,-27.5308
10141,179478,232.276,226.946,-27.8703
10153,179690.4,232.63,227.302,-28.2398
10165,179902.8,232.984,227.659,-28.2768
10177,180115.2,233.335,228.015,-28.51
10189,180327.6,233.688,228.371,-28.8042
10201,180540,234.041,228.727,-29.0599
10213,180752.4,234.396,229.084,-29.2532
10225,180964.8,234.751,229.438,-29.5584
10237,181177.2,235.107,229.795,-29.9101
10249,181389.6,235.461,230.151,-30.30209
10261,181602,235.816,230.506,-30.6291
10273,181814.4,236.169,230.862,-30.9803
10285,182026.8,236.522,231.218,-31.17441
10297,182239.2,236.877,231.573,-31.4142
10309,182451.6,237.231,231.929,-31.6911
10321,182664,237.585,232.2857,-32.0532
10333,182876.4,237.939,232.642,-32.4554
10345,183088.8,238.292,232.997,-32.7304
10357,183301.2,238.648,233.353,-33.0634
10369,183513.6,239.002,233.709,-33.3385
10381,183726,239.355,234.065,-33.6732
10393,183938.4,239.709,234.421,-34.0525
10405,184150.8,240.062,234.776,-34.4564
10417,184363.2,240.417,235.132,-34.6359
10429,184575.6,240.77,235.488,-35.0443
10441,184788,241.124,235.843,-35.4487
10453,185000.4,241.479,236.2,-35.9444
10465,185212.8,241.833,236.555,-36.3879
10477,185425.2,242.187,236.9103,-36.9471
10489,185637.6,242.542,237.266,-37.5159
10501,185850,242.895,237.622,-37.8577
10513,186062.4,243.25,237.978,-38.5189
10525,186274.8,243.604,238.334,-39.0142
10537,186487.2,243.959,238.69,-39.456
10549,186699.6,244.314,239.046,-40.0455
10561,186912,244.667,239.403,-40.6463
10573,187124.4,245.02,239.759,-41.2312
10585,187336.8,245.373,240.116,-41.6925
10597,187549.2,245.728,240.471,-42.2536
10609,187761.6,246.08,240.827,-42.869
10621,187974,246.434,241.183,-43.427
10633,188186.4,246.787,241.538,-44.0896
10645,188398.8,247.143,241.894,-44.7469
10657,188611.2,247.496,242.249,-45.4393
10669,188823.6,247.849,242.605,-46.0211
10681,189036,248.203,242.961,-46.7902
10693,189248.4,248.558,243.316,-47.4202
10705,189460.8,248.912,243.671,-48.2651
10717,189673.2,249.266,244.026,-49.0578
10729,189885.6,249.619,244.381,-49.8554
10741,190098,249.974,244.736,-50.61276
10753,190310.4,250.329,245.092,-51.4515
10765,190522.8,250.683,245.447,-52.3216
10777,190735.2,251.038,245.803,-53.23803
10789,190947.6,251.391,246.159,-54.1219
10801,191160,251.745,246.514,-55.1807
10813,191372.4,252.1,246.87,-56.1511
10825,191584.8,252.454,247.225,-57.25566
10837,191797.2,252.808,247.581,-58.28101
10849,192009.6,253.16,247.936,-59.3951
10861,192222,253.514,248.292,-60.4875
10873,192434.4,253.867,248.647,-61.46435
10885,192646.8,254.222,249.003,-62.3884
10897,192859.2,254.576,249.358,-63.3747
10909,193071.6,254.93,249.714,-64.3197
10921,193284,255.284,250.069,-65.022
10933,193496.4,255.638,250.424,-65.5932
10945,193708.8,255.993,250.779,-65.7931
10957,193921.2,256.346,251.135,-65.4764
10969,194133.6,256.7,251.49,-63.8907
10981,194346,257.053,251.845,-61.2206
10993,194558.4,257.408,252.201,-56.0387
11005,194770.8,257.763,252.558,-47.2192
11017,194983.2,258.119,252.914,-39.5856
11029,195195.6,258.472,253.27,-35.7374
11041,195408,258.826,253.627,-36.0656
11053,195620.4,259.178,253.982,-31.5929
11065,195832.8,259.531,254.339,-28.95993
11077,196045.2,259.886,254.696,-27.2277
11089,196257.6,260.24,255.053,-26.3336
11101,196470,260.596,255.408,-25.8938
11113,196682.4,260.95,255.765,-25.6895
11125,196894.8,261.305,256.122,-25.4934
11137,197107.2,261.658,256.478,-25.4637
11149,197319.6,262.01,256.834,-25.3802
11161,197532,262.364,257.191,-25.3843
11173,197744.4,262.718,257.547,-25.4187
11185,197956.8,263.073,257.902,-25.4567
11197,198169.2,263.427,258.259,-25.4319
11209,198381.6,263.781,258.615,-25.418
11221,198594,264.132,258.971,-25.4308
11233,198806.4,264.485,259.326,-25.4853
11245,199018.8,264.84,259.681,-25.50077
11257,199231.2,265.198,260.036,-25.5022
11269,199443.6,265.556,260.393,-25.5052
11281,199656,265.91,260.749,-25.5448
11293,199868.4,266.262,261.106,-25.5549
11305,200080.8,266.612,261.462,-25.5877
11317,200293.2,266.963,261.817,-25.6182
11329,200505.6,267.316,262.173,-25.6068
11341,200718,267.672,262.527,-25.6087
11353,200930.4,268.028,262.883,-25.6687
11365,201142.8,268.384,263.239,-25.6978
11377,201355.2,268.737,263.593,-25.7134
11389,201567.6,269.088,263.949,-25.6896
11401,201780,269.439,264.304,-25.71271
11413,201992.4,269.794,264.659,-25.7136
11425,202204.8,270.148,265.014,-25.6876
11437,202417.2,270.503,265.368,-25.6723
11449,202629.6,270.858,265.723,-25.7017
11461,202842,271.212,266.077,-25.70756
11473,203054.4,271.567,266.432,-25.778
11485,203266.8,271.921,266.786,-25.7712
11497,203479.2,272.276,267.14,-25.7414
11509,203691.6,272.629,267.496,-25.73951
11521,203904,272.984,267.85,-25.7874
11533,204116.4,273.338,268.205,-25.7523
11545,204328.8,273.692,268.559,-25.8258
11557,204541.2,274.045,268.914,-25.8719
11569,204753.6,274.397,269.269,-25.932
11581,204966,274.754,269.623,-25.9407
11593,205178.4,275.112,269.978,-25.9486
11605,205390.8,275.47,270.333,-25.9419
11617,205603.2,275.824,270.689,-26.0025
11629,205815.6,276.174,271.045,-26.0759
11641,206028,276.525,271.401,-26.1375
11653,206240.4,276.876,271.757,-26.1966
11665,206452.8,277.233,272.112,-26.194
11677,206665.2,277.591,272.467,-26.1413
11689,206877.6,277.945,272.824,-26.2242
11701,207090,278.294,273.179,-26.2389
11713,207302.4,278.647,273.535,-26.2049
11725,207514.8,279.001,273.89,-26.2216
11737,207727.2,279.357,274.246,-26.2331
11749,207939.6,279.71,274.601,-26.2223
11761,208152,280.065,274.957,-26.2244
11773,208364.4,280.419,275.312,-26.24585
11785,208576.8,280.773,275.667,-26.2564
11797,208789.2,281.126,276.023,-26.2811
11809,209001.6,281.48,276.377,-26.2907
11821,209214,281.833,276.732,-26.3061
11833,209426.4,282.188,277.088,-26.3096
11845,209638.8,282.54,277.443,-26.3544
11857,209851.2,282.895,277.798,-26.3897
11869,210063.6,283.25,278.153,-26.3796
11881,210276,283.605,278.509,-26.3611
11893,210488.4,283.96,278.863,-26.3275
11905,210700.8,284.315,279.219,-26.39571
11917,210913.2,284.672,279.575,-26.4173
11929,211125.6,285.026,279.931,-26.4654
11941,211338,285.3793,280.288,-26.5208
11953,211550.4,285.731,280.644,-26.56443
11965,211762.8,286.083,280.999,-26.5875
11977,211975.2,286.436,281.356,-26.5975
11989,212187.6,286.789,281.712,-26.5869
12001,212400,287.144,282.067,-26.5982
12013,212612.4,287.497,282.422,-26.5983
12025,212824.8,287.851,282.777,-26.5825
12037,213037.2,288.206,283.132,-26.5967
12049,213249.6,288.559,283.487,-26.6084
12061,213462,288.915,283.842,-26.6218
12073,213674.4,289.271,284.199,-26.6042
12085,213886.8,289.626,284.553,-26.6114
12097,214099.2,289.978,284.909,-26.64582
12109,214311.6,290.331,285.264,-26.6789
12121,214524,290.683,285.62,-26.6919
12133,214736.4,291.036,285.975,-26.6942
12145,214948.8,291.387,286.328,-26.7098
12157,215161.2,291.746,286.683,-26.6979
12169,215373.6,292.104,287.038,-26.699
12181,215586,292.462,287.394,-26.7232
12193,215798.4,292.814,287.75,-26.79415
12205,216010.8,293.165,288.106,-26.832
12217,216223.2,293.517,288.461,-26.8377
12229,216435.6,293.87,288.816,-26.8216
12241,216648,294.225,289.172,-26.8232
12253,216860.4,294.577,289.526,-26.8281
12265,217072.8,294.932,289.881,-26.8362
12277,217285.2,295.287,290.236,-26.8355
12289,217497.6,295.642,290.591,-26.8254
12301,217710,295.994,290.945,-26.845
12313,217922.4,296.348,291.3,-26.8472
12325,218134.8,296.703,291.654,-26.84154
12337,218347.2,297.055,292.007,-26.8288
12349,218559.6,297.41,292.36,-26.8093
12361,218772,297.766,292.713,-26.808
12373,218984.4,298.121,293.066,-26.8258
12385,219196.8,298.472,293.418,-26.8397
12397,219409.2,298.827,293.769,-26.8252
12409,219621.6,299.181,294.12,-26.7824
12421,219834,299.534,294.469,-26.7307
12433,220046.4,299.889,294.82,-26.6777
12445,220258.8,300.241,295.172,-26.6949
12457,220471.2,300.592,295.528,-26.76737
12469,220683.6,300.948,295.884,-26.869
12481,220896,301.307,296.241,-26.9811
12493,221108.4,301.661,296.598,-27.0766
12505,221320.8,302.013,296.957,-27.143
12517,221533.2,302.365,297.314,-27.1915
12529,221745.6,302.716,297.671,-27.20591
12541,221958,303.075,298.027,-27.1935
12553,222170.4,303.431,298.384,-27.1787
12565,222382.8,303.787,298.74,-27.1559
12577,222595.2,304.138,299.098,-27.1585
12589,222807.6,304.491,299.454,-27.15889
12601,223020,304.846,299.81,-27.15115
12613,223232.4,305.203,300.167,-27.1501
12625,223444.8,305.56,300.524,-27.1312
12637,223657.2,305.915,300.881,-27.1401
12649,223869.6,306.267,301.238,-27.1668
12661,224082,306.618,301.595,-27.1687
12673,224294.4,306.967,301.951,-27.1509
12685,224506.8,307.319,302.307,-27.1135
12697,224719.2,307.675,302.663,-27.0595
12709,224931.6,308.03,303.018,-27.0177
12721,225144,308.384,303.3734,-26.979
12733,225356.4,308.737,303.729,-26.9546
12745,225568.8,309.088,304.085,-26.9412
12757,225781.2,309.4443,304.438,-26.9183
12769,225993.6,309.802,304.794,-26.8946
12781,226206,310.158,305.149,-26.8987
12793,226418.4,310.512,305.506,-26.9243
12805,226630.8,310.865,305.863,-26.9581
12817,226843.2,311.217,306.219,-26.9833
12829,227055.6,311.57,306.575,-26.996
12841,227268,311.927,306.932,-26.9885
12853,227480.4,312.282,307.288,-26.9959
12865,227692.8,312.636,307.645,-27.0118
12877,227905.2,312.986,308.002,-27.0226
12889,228117.6,313.337,308.358,-27.0315
12901,228330,313.694,308.714,-27.0048
12913,228542.4,314.052,309.069,-26.9883
12925,228754.8,314.407,309.427,-27.0249
12937,228967.2,314.759,309.782,-27.0502
12949,229179.6,315.112,310.139,-27.0545
12961,229392,315.464,310.495,-27.0558
12973,229604.4,315.819,310.851,-27.0335
12985,229816.8,316.174,311.208,-27.0211
12997,230029.2,316.528,311.564,-27.0345
13009,230241.6,316.884,311.92,-27.04884
13021,230454,317.238,312.276,-27.0557
13033,230666.4,317.592,312.632,-27.0579
13045,230878.8,317.944,312.989,-27.0644
13057,231091.2,318.297,313.345,-27.0825
13069,231303.6,318.649,313.7,-27.1473
13081,231516,319.005,314.056,-27.2253
13093,231728.4,319.226,314.41,-27.2164
13105,231940.8,319.205,314.741,-27.0056
13117,232153.2,319.181,315.043,-26.2248
13129,232365.6,319.169,315.317,-24.8639
13141,232578,319.166,315.567,-23.1325
13153,232790.4,319.166,315.796,-21.3036
13165,233002.8,319.165,316.005,-19.5196
13177,233215.2,319.164,316.197,-17.8479
13189,233427.6,319.164,316.371,-16.2951
13201,233640,319.16,316.532,-14.8602
13213,233852.4,319.159,316.677,-13.5418
13225,234064.8,319.16,316.81,-12.34669
13237,234277.2,319.16,316.93,-11.3007
13249,234489.6,319.16,317.042,-10.26806
13261,234702,319.16,317.145,-9.310919
13273,234914.4,319.158,317.238,-8.44785
13285,235126.8,319.158,317.323,-7.667844
13297,235339.2,319.157,317.401,-6.950601
13309,235551.6,319.156,317.473,-6.295257
13321,235764,319.156,317.538,-5.707021
13333,235976.4,319.153,317.598,-5.211021
13345,236188.8,319.151,317.652,-4.717447
13357,236401.2,319.15,317.7,-4.244187
13369,236613.6,319.149,317.745,-3.790716
13381,236826,319.149,317.787,-3.403439
13393,237038.4,319.152,317.824,-3.011303
13405,237250.8,319.153,317.858,-2.673365
13417,237463.2,319.152,317.889,-2.365321
13429,237675.6,319.153,317.918,-2.082606
13441,237888,319.153,317.944,-1.831464
13453,238100.4,319.152,317.968,-1.604465
13465,238312.8,319.152,317.99,-1.391819
13477,238525.2,319.152,318.01,-1.198081
13489,238737.6,319.151,318.028,-1.024937
13501,238950,319.15,318.045,-0.858884
13513,239162.4,319.15,318.06,-0.695368
13525,239374.8,319.148,318.074,-0.564085
13537,239587.2,319.147,318.085,-0.425886
13549,239799.6,319.147,318.097,-0.306082
13561,240012,319.151,318.106,-0.176831
13573,240224.4,319.152,318.116,-0.075085
13585,240436.8,319.155,318.125,-0.073566
13597,240649.2,319.155,318.133,-0.066142
13609,240861.6,319.153,318.14,-0.051462
13621,241074,319.152,318.147,-0.03577
13633,241286.4,319.152,318.154,0.053992
13645,241498.8,319.151,318.159,0.165857
13657,241711.2,319.153,318.165,0.260511
13669,241923.6,319.153,318.17,0.323276
13681,242136,319.151,318.175,0.372542
13693,242348.4,319.149,318.18,0.419446
13705,242560.8,319.149,318.182,0.45572
13717,242773.2,319.147,318.185,0.499587
13729,242985.6,319.149,318.189,0.54396
13741,243198,319.148,318.191,0.582765
13753,243410.4,319.147,318.193,0.61094
13765,243622.8,319.149,318.194,0.647552
13777,243835.2,319.149,318.196,0.678934
13789,244047.6,319.149,318.198,0.702216
13801,244260,319.152,318.199,0.723137
13813,244472.4,319.15,318.202,0.737814
13825,244684.8,319.148,318.202,0.743045
13837,244897.2,319.148,318.203,0.766496
13849,245109.6,319.148,318.204,0.793322
13861,245322,319.15,318.204,0.817786
13873,245534.4,319.152,318.206,0.82639
13885,245746.8,319.152,318.207,0.819978
13897,245959.2,319.152,318.208,0.81306
13909,246171.6,319.151,318.208,0.822171
13921,246384,319.152,318.209,0.832125
13933,246596.4,319.152,318.209,0.83938
13945,246808.8,319.153,318.211,0.828074
13957,247021.2,319.152,318.212,0.820144
13969,247233.6,319.151,318.213,0.824193
13981,247446,319.151,318.213,0.823349
13993,247658.4,319.149,318.214,0.821999
14005,247870.8,319.145,318.213,0.821156
14017,248083.2,319.144,318.213,0.838027
14029,248295.6,319.145,318.212,0.865698
14041,248508,319.148,318.21,0.906867
14053,248720.4,319.152,318.211,0.928631
14065,248932.8,319.153,318.21,0.925595
14077,249145.2,319.149,318.21,0.903324
14089,249357.6,319.144,318.209,0.900119
14101,249570,319.145,318.208,0.914967
14113,249782.4,319.152,318.207,0.936226
14125,249994.8,319.155,318.207,0.956304
14137,250207.2,319.156,318.207,0.950905
14149,250419.6,319.154,318.208,0.931838
14161,250632,319.153,318.209,0.902818
14173,250844.4,319.15,318.209,0.878691
14185,251056.8,319.149,318.21,0.865531
14197,251269.2,319.148,318.21,0.864518
14209,251481.6,319.148,318.211,0.871098
14221,251694,319.148,318.211,0.880884
14233,251906.4,319.149,318.211,0.890669
14245,252118.8,319.149,318.211,0.892188
14257,252331.2,319.149,318.211,0.894718
14269,252543.6,319.15,318.212,0.901298
14281,252756,319.152,318.212,0.913277
14293,252968.4,319.154,318.213,0.913951
14305,253180.8,319.152,318.214,0.889824
14317,253393.2,319.15,318.213,0.874471
14329,253605.6,319.149,318.214,0.888305
14341,253818,319.149,318.214,0.900791
14353,254030.4,319.15,318.214,0.927279
14365,254242.8,319.152,318.214,0.943645
14377,254455.2,319.152,318.215,0.939258
14389,254667.6,319.151,318.215,0.922723
14401,254880,319.149,318.215,0.928966
14413,255092.4,319.148,318.215,0.934196
14425,255304.8,319.149,318.214,0.951743
14437,255517.2,319.151,318.214,0.969627
14449,255729.6,319.152,318.215,0.970302
14461,255942,319.151,318.215,0.964565
14473,256154.4,319.152,318.216,0.961865
14485,256366.8,319.153,318.216,0.954442
14497,256579.2,319.153,318.217,0.950392
14509,256791.6,319.152,318.217,0.935713
14521,257004,319.151,318.218,0.934869
14533,257216.4,319.152,318.218,0.935038
14545,257428.8,319.1505,318.219,0.930313
14557,257641.2,319.151,318.22,0.937905
14569,257853.6,319.148,318.22,0.933855
14581,258066,319.148,318.22,0.939761
14593,258278.4,319.147,318.219,0.954608
14605,258490.8,319.147,318.22,0.964562
14617,258703.2,319.148,318.219,0.984809
14629,258915.6,319.15,318.22,0.982109
14641,259128,319.15,318.22,0.985315
14653,259340.4,319.147,318.22,0.986327
14665,259552.8,319.148,318.219,1.002693
14677,259765.2,319.15,318.22,1.013659
14689,259977.6,319.15,318.22,1.007754
14701,260190,319.149,318.22,1.002018
14713,260402.4,319.146,318.219,1.014166
14725,260614.8,319.147,318.218,1.030701
14737,260827.2,319.148,318.218,1.053816
14749,261039.6,319.149,318.217,1.04673
14761,261252,319.15,318.217,1.046899
14773,261464.4,319.149,318.217,1.047068
14785,261676.8,319.151,318.216,1.056517
14797,261889.2,319.149,318.216,1.058204
14809,262101.6,319.15,318.215,1.072883
14821,262314,319.149,318.215,1.076763
14833,262526.4,319.15,318.214,1.083344
14845,262738.8,319.152,318.215,1.085705
14857,262951.2,319.155,318.214,1.062929
14869,263163.6,319.158,318.216,1.035764
14881,263376,319.158,318.216,1.005057
14893,263588.4,319.159,318.219,0.97941
14899,263694.6,319.158,318.22,0.976372