File: i_data/46C/H2O-NH3_4.8505g.csv
H2O-NH3 2wt% Specific Heat - Large HF 03Nov22,,,,
Creation Date : 11/7/2022 9:33:05 AM,,,,
User : admin,,,,
,,,,
HeatFlow :,,,,
 Initial Mass : 4850.5 mg,,,,
 Molar Mass : 17 g/mol,,,,
,,,,
Index,Time(s),Furnace Temperature(K),Sample Temperature(K),HeatFlow(mW)
1,0,318.661,317.873,-1769.58
13,212.4,318.093,317.867,-965.729
25,424.8,317.676,317.847,-489.18
37,637.2,317.328,317.806,-248.633
49,849.6,317.018,317.745,-126.869
61,1062,316.718,317.666,-64.8527
73,1274.4,316.396,317.566,-32.7882
85,1486.8,316.024,317.447,-15.6706
97,1699.2,315.572,317.303,-5.788027
109,1911.6,314.994,317.127,0.642484
121,2124,314.212,316.906,5.49975
133,2336.4,313.177,316.626,10.1891
145,2548.8,311.892,316.266,15.4629
157,2761.2,310.386,315.815,21.8174
169,2973.6,308.723,315.262,29.3537
181,3186,306.967,314.607,38.1467
193,3398.4,305.165,313.851,47.5601
205,3610.8,303.344,313.004,57.1739
217,3823.2,301.524,312.07,66.645
229,4035.6,299.713,311.061,75.7243
241,4248,297.923,309.984,84.2229
253,4460.4,296.158,308.846,92.0207
265,4672.8,294.42,307.657,99.05229
277,4885.2,292.711,306.424,105.301
289,5097.6,291.028,305.155,110.791
301,5310,289.369,303.855,115.57
313,5522.4,287.736,302.528,119.661
325,5734.8,286.13,301.179,123.176
337,5947.2,284.5526,299.813,126.162
349,6159.6,283.001,298.431,128.624
361,6372,281.476,297.041,130.6
373,6584.4,279.975,295.644,132.153
385,6796.8,278.508,294.244,133.317
397,7009.2,277.072,292.852,133.903
409,7221.6,275.669,291.471,133.752
421,7434,274.29,290.087,133.88
433,7646.4,272.932,288.699,134.073
445,7858.8,271.594,287.318,134.228
457,8071.2,270.272,285.943,134.133
469,8283.6,268.967,284.576,133.846
481,8496,267.677,283.217,133.272
493,8708.4,266.4,281.868,132.642
505,8920.8,265.135,280.529,131.992
517,9133.2,263.882,279.2,131.217
529,9345.6,262.64,277.881,130.354
541,9558,261.405,276.572,129.629
553,9770.4,260.18,275.273,128.744
565,9982.8,258.965,273.984,128.081
577,10195.2,257.759,272.703,127.359
589,10407.6,256.564,271.433,126.71
601,10620,255.381,270.173,125.751
613,10832.4,254.208,268.921,124.95
625,11044.8,253.046,267.68,124.44
637,11257.2,251.894,266.45,123.434
649,11469.6,250.752,265.228,122.525
661,11682,249.621,264.017,121.717
673,11894.4,248.5,262.816,120.903
685,12106.8,247.389,261.625,120.188
697,12319.2,246.288,260.442,134.601
709,12531.6,245.199,259.309,1286.7
721,12744,244.123,258.186,1307.41
733,12956.4,243.062,257.068,1184.3
745,13168.8,242.01,255.949,907.634
757,13381.2,240.969,254.826,604.525
769,13593.6,239.935,253.703,389.605
781,13806,238.909,252.585,259.685
793,14018.4,237.888,251.474,185.359
805,14230.8,236.874,250.372,142.806
817,14443.2,235.867,249.278,118.46
829,14655.6,234.866,248.193,103.873
841,14868,233.874,247.117,94.2134
853,15080.4,232.888,246.05,87.8914
865,15292.8,231.91,244.991,82.7413
877,15505.2,230.94,243.941,78.4505
889,15717.6,229.976,242.9,74.9951
901,15930,229.02,241.868,72.0348
913,16142.4,228.072,240.842,69.4119
925,16354.8,227.133,239.827,67.6387
937,16567.2,226.2,238.819,65.5361
949,16779.6,225.275,237.819,63.5099
961,16992,224.359,236.828,61.7815
973,17204.4,223.451,235.845,60.0802
985,17416.8,222.55,234.869,58.5142
997,17629.2,221.656,233.902,57.2204
1009,17841.6,220.77,232.941,56.1373
1021,18054,219.89,231.989,54.8753
1033,18266.4,219.016,231.045,53.4613
1045,18478.8,218.151,230.108,52.398
1057,18691.2,217.286,229.178,51.1959
1069,18903.6,216.419,228.254,50.2844
1081,19116,215.556,227.337,49.6609
1093,19328.4,214.7,226.426,48.7752
1105,19540.8,213.845,225.52,47.1503
1117,19753.2,212.988,224.62,46.4214
1129,19965.6,212.132,223.725,46.0418
1141,20178,211.28,222.835,44.7561
1153,20390.4,210.434,221.949,43.6684
1165,20602.8,209.603,221.069,43.7556
1177,20815.2,208.79,220.194,42.9529
1189,21027.6,207.991,219.326,42.2576
1201,21240,207.203,218.466,41.7748
1213,21452.4,206.424,217.612,40.6865
1225,21664.8,205.656,216.767,40.088
1237,21877.2,204.894,215.929,39.1194
1249,22089.6,204.137,215.099,39.1039
1261,22302,203.386,214.274,38.3444
1273,22514.4,202.641,213.456,37.376
1285,22726.8,201.903,212.646,37.2649
1297,22939.2,201.171,211.843,36.4477
1309,23151.6,200.443,211.047,36.2031
1321,23364,199.72,210.257,35.5258
1333,23576.4,199.004,209.4723,34.8453
1345,23788.8,198.294,208.695,34.5414
1357,24001.2,197.589,207.924,33.8209
1369,24213.6,196.89,207.159,33.2723
1381,24426,196.198,206.401,33.0173
1393,24638.4,195.51,205.649,32.3216
1405,24850.8,194.827,204.902,31.8586
1417,25063.2,194.149,204.161,31.31402
1429,25275.6,193.474,203.427,31.3366
1441,25488,192.801,202.697,31.1372
1453,25700.4,192.134,201.973,30.3516
1465,25912.8,191.47,201.254,30.4778
1477,26125.2,190.81,200.54,29.9377
1489,26337.6,190.157,199.833,29.0061
1501,26550,189.507,199.129,28.5687
1513,26762.4,188.863,198.431,27.97137
1525,26974.8,188.224,197.737,27.7467
1537,27187.2,187.587,197.049,27.4358
1549,27399.6,186.956,196.366,27.2032
1561,27612,186.329,195.687,26.4039
1573,27824.4,185.707,195.012,26.4005
1585,28036.8,185.088,194.3431,26.0991
1597,28249.2,184.471,193.678,25.8114
1609,28461.6,183.859,193.018,25.4936
1621,28674,183.25,192.362,24.9837
1633,28886.4,182.648,191.711,25.0103
1645,29098.8,182.051,191.064,24.5422
1657,29311.2,181.459,190.421,23.9699
1669,29523.6,180.872,189.783,23.96315
1681,29736,180.291,189.15,23.6806
1693,29948.4,179.717,188.52,23.4445
1705,30160.8,179.148,187.897,23.48615
1717,30373.2,178.584,187.278,23.41036
1729,30585.6,178.024,186.664,23.04127
1741,30798,177.472,186.054,23.1282
1753,31010.4,176.924,185.45,22.8862
1765,31222.8,176.38,184.849,22.4787
1777,31435.2,175.841,184.255,22.0442
1789,31647.6,175.303,183.664,21.296
1801,31860,174.767,183.078,21.0079
1813,32072.4,174.233,182.497,20.9298
1825,32284.8,173.704,181.918,20.9187
1837,32497.2,173.178,181.344,20.4015
1849,32709.6,172.658,180.775,20.4003
1861,32922,172.139,180.209,20.4929
1873,33134.4,171.62,179.648,20.091
1885,33346.8,171.108,179.09,19.8039
1897,33559.2,170.598,178.535,19.3081
1909,33771.6,170.094,177.986,19.36767
1921,33984,169.592,177.439,19.2581
1933,34196.4,169.092,176.897,18.8929
1945,34408.8,168.593,176.357,18.5726
1957,34621.2,168.097,175.822,18.7055
1969,34833.6,167.607,175.289,18.3418
1981,35046,167.12,174.76,18.1209
1993,35258.4,166.636,174.235,18.1509
2005,35470.8,166.153,173.713,18.0058
2017,35683.2,165.673,173.194,17.5744
2029,35895.6,165.199,172.678,17.8267
2041,36108,164.731,172.167,17.812
2053,36320.4,164.264,171.658,17.6197
2065,36532.8,163.801,171.152,17.5263
2077,36745.2,163.341,170.652,17.4009
2089,36957.6,162.885,170.154,17.2102
2101,37170,162.432,169.658,16.7274
2113,37382.4,161.982,169.167,16.5754
2125,37594.8,161.532,168.679,16.5684
2137,37807.2,161.082,168.193,16.3909
2149,38019.6,160.634,167.711,16.3519
2161,38232,160.189,167.232,16.1639
2173,38444.4,159.748,166.755,15.93036
2185,38656.8,159.312,166.281,15.8423
2197,38869.2,158.879,165.811,15.7814
2209,39081.6,158.449,165.343,15.5049
2221,39294,158.023,164.879,15.3555
2233,39506.4,157.601,164.418,15.4854
2245,39718.8,157.18,163.96,15.079
2257,39931.2,156.758,163.504,15.3367
2269,40143.6,156.338,163.051,15.2108
2281,40356,155.918,162.6,15.0248
2293,40568.4,155.495,162.153,14.9527
2305,40780.8,155.074,161.707,14.7864
2317,40993.2,154.656,161.263,14.6365
2329,41205.6,154.239,160.821,14.5688
2341,41418,153.826,160.382,14.6102
2353,41630.4,153.418,159.943,14.676
2365,41842.8,153.019,159.509,13.903
2377,42055.2,152.625,159.077,13.7732
2389,42267.6,152.231,158.648,14.1692
2401,42480,151.833,158.222,13.6986
2413,42692.4,151.432,157.797,13.9867
2425,42904.8,151.034,157.374,13.83196
2437,43117.2,150.636,156.953,13.7136
2449,43329.6,150.239,156.534,13.6369
2461,43542,149.842,156.118,13.3279
2473,43754.4,149.447,155.702,13.4931
2485,43966.8,149.057,155.288,13.4321
2497,44179.2,148.668,154.877,13.1688
2509,44391.6,148.285,154.467,12.983
2521,44604,147.909,154.06,13.1914
2533,44816.4,147.534,153.654,13.00153
2545,45028.8,147.155,153.251,12.7912
2557,45241.2,146.773,152.849,12.8479
2569,45453.6,146.385,152.45,12.8158
2581,45666,145.998,152.051,12.75759
2593,45878.4,145.608,151.652,12.7833
2605,46090.8,145.219,151.255,12.7605
2617,46303.2,144.832,150.859,12.6808
2629,46515.6,144.448,150.463,12.5211
2641,46728,144.068,150.069,12.4888
2653,46940.4,143.692,149.675,12.4591
2665,47152.8,143.317,149.284,12.4917
2677,47365.2,142.946,148.894,12.2823
2689,47577.6,142.578,148.504,12.094
2701,47790,142.213,148.117,12.0635
2713,48002.4,141.849,147.731,11.93787
2725,48214.8,141.484,147.347,11.9148
2737,48427.2,141.12,146.965,11.925
2749,48639.6,140.754,146.584,11.8503
2761,48852,140.385,146.204,11.8527
2773,49064.4,140.014,145.825,11.84645
2785,49276.8,139.643,145.445,11.8881
2797,49489.2,139.277,145.068,11.6969
2809,49701.6,138.913,144.69,11.6481
2821,49914,138.55,144.314,11.593
2833,50126.4,138.186,143.939,11.1713
2845,50338.8,137.83,143.566,11.1196
2857,50551.2,137.48,143.194,11.06492
2869,50763.6,137.133,142.823,11.2192
2881,50976,136.794,142.455,11.2156
2893,51188.4,136.461,142.089,11.0321
2905,51400.8,136.132,141.725,10.8196
2917,51613.2,135.811,141.363,10.7306
2929,51825.6,135.492,141.005,10.7765
2941,52038,135.178,140.649,10.7155
2953,52250.4,134.867,140.297,10.6422
2965,52462.8,134.557,139.947,10.1598
2977,52675.2,134.254,139.6,10.0012
2989,52887.6,133.953,139.256,9.870879
3001,53100,133.653,138.916,10.0665
3013,53312.4,133.357,138.577,10.0285
3025,53524.8,133.064,138.242,9.829417
3037,53737.2,132.769,137.909,9.572063
3049,53949.6,132.473,137.58,9.72855
3061,54162,132.175,137.253,9.455491
3073,54374.4,131.878,136.928,9.254674
3085,54586.8,131.582,136.604,9.301594
3097,54799.2,131.288,136.282,9.386528
3109,55011.6,130.997,135.963,9.346871
3121,55224,130.708,135.644,8.946238
3133,55436.4,130.422,135.328,8.959841
3145,55648.8,130.135,135.015,9.075224
3157,55861.2,129.85,134.703,8.97126
3169,56073.6,129.57,134.393,8.743089
3181,56286,129.293,134.086,8.739314
3193,56498.4,129.019,133.78,8.728253
3205,56710.8,128.748,133.476,8.501491
3217,56923.2,128.479,133.175,8.394435
3229,57135.6,128.211,132.877,8.342487
3241,57348,127.946,132.579,8.105632
3253,57560.4,127.681,132.285,8.134481
3265,57772.8,127.418,131.992,8.165269
3277,57985.2,127.155,131.701,8.053399
3289,58197.6,126.896,131.413,7.874256
3301,58410,126.641,131.126,7.88446
3313,58622.4,126.388,130.842,7.64891
3325,58834.8,126.138,130.559,7.489773
3337,59047.2,125.889,130.279,7.555296
3349,59259.6,125.64,130.001,7.693818
3361,59472,125.394,129.724,7.488384
3373,59684.4,125.149,129.45,7.519567
3385,59896.8,124.903,129.177,7.394764
3397,60109.2,124.659,128.907,7.190677
3409,60321.6,124.418,128.638,7.177033
3421,60534,124.179,128.371,7.02913
3433,60746.4,123.942,128.106,7.039339
3445,60958.8,123.708,127.844,6.992865
3457,61171.2,123.477,127.5828,6.990465
3469,61383.6,123.249,127.323,6.906519
3481,61596,123.021,127.067,6.806074
3493,61808.4,122.793,126.811,6.653344
3505,62020.8,122.567,126.558,6.496988
3517,62233.2,122.342,126.306,6.442484
3529,62445.6,122.119,126.057,6.347776
3541,62658,121.899,125.809,6.349252
3553,62870.4,121.681,125.562,6.23188
3565,63082.8,121.463,125.319,6.07984
3577,63295.2,121.249,125.076,6.097067
3589,63507.6,121.038,124.836,6.043608
3601,63720,120.831,124.597,6.070269
3613,63932.4,120.624,124.361,5.998125
3625,64144.8,120.414,124.127,5.899736
3637,64357.2,120.203,123.894,5.810369
3649,64569.6,119.993,123.662,5.786464
3661,64782,119.785,123.431,5.675575
3673,64994.4,119.578,123.203,5.611508
3685,65206.8,119.371,122.975,5.563487
3697,65419.2,119.168,122.749,5.586515
3709,65631.6,118.969,122.526,5.56273
3721,65844,118.772,122.302,5.458546
3733,66056.4,118.577,122.082,5.435274
3745,66268.8,118.379,121.862,5.381234
3757,66481.2,118.182,121.645,5.295702
3769,66693.6,117.983,121.428,5.258502
3781,66906,117.785,121.212,5.156103
3793,67118.4,117.591,120.998,5.06403
3805,67330.8,117.399,120.785,5.108526
3817,67543.2,117.209,120.574,5.084583
3829,67755.6,117.022,120.363,5.015123
3841,67968,116.835,120.154,4.972072
3853,68180.4,116.65,119.947,4.878933
3865,68392.8,116.465,119.742,4.813978
3877,68605.2,116.283,119.537,4.768916
3889,68817.6,116.101,119.334,4.701257
3901,69030,115.923,119.133,4.69464
3913,69242.4,115.747,118.933,4.642396
3925,69454.8,115.572,118.735,4.620984
3937,69667.2,115.397,118.538,4.588353
3949,69879.6,115.225,118.343,4.491329
3961,70092,115.056,118.149,4.535338
3973,70304.4,114.888,117.957,4.478808
3985,70516.8,114.72,117.766,4.441818
3997,70729.2,114.551,117.577,4.379939
4009,70941.6,114.381,117.389,4.299563
4021,71154,114.211,117.202,4.229896
4033,71366.4,114.045,117.016,4.379378
4045,71578.8,113.881,116.831,4.2506
4057,71791.2,113.722,116.649,4.164163
4069,72003.6,113.563,116.467,4.129505
4081,72216,113.405,116.287,4.07597
4093,72428.4,113.255,116.109,4.022856
4105,72640.8,113.109,115.933,3.937668
4117,72853.2,112.966,115.759,3.874888
4129,73065.6,112.823,115.586,3.836154
4141,73278,112.678,115.416,3.820912
4153,73490.4,112.529,115.247,3.767561
4165,73702.8,112.377,115.079,3.71224
4177,73915.2,112.226,114.912,3.670596
4189,74127.6,112.073,114.7461,3.647174
4201,74340,111.919,114.581,3.630589
4213,74552.4,111.764,114.416,3.609762
4225,74764.8,111.608,114.253,3.610878
4237,74977.2,111.449,114.089,3.562478
4249,75189.6,111.29,113.925,3.542075
4261,75402,111.132,113.763,3.50405
4273,75614.4,110.976,113.6,3.488972
4285,75826.8,110.822,113.438,3.468993
4297,76039.2,110.671,113.276,3.483301
4309,76251.6,110.527,113.115,3.457474
4321,76464,110.383,112.956,3.437337
4333,76676.4,110.238,112.798,3.431764
4345,76888.8,110.094,112.639,3.375529
4357,77101.2,109.948,112.482,3.349994
4369,77313.6,109.802,112.326,3.334175
4381,77526,109.657,112.171,3.296559
4393,77738.4,109.511,112.015,3.255184
4405,77950.8,109.361,111.861,3.244699
4417,78163.2,109.209,111.705,3.244651
4429,78375.6,109.055,111.552,3.218736
4441,78588,108.898,111.396,3.21066
4453,78800.4,108.743,111.242,3.203477
4465,79012.8,108.583,111.087,3.220366
4477,79225.2,108.422,110.931,3.229888
4489,79437.6,108.254,110.775,3.230777
4501,79650,108.082,110.619,3.21064
4513,79862.4,107.909,110.46,3.263356
4525,80074.8,107.735,110.301,3.296651
4537,80287.2,107.562,110.141,3.307994
4549,80499.6,107.39,109.981,3.303826
4561,80712,107.216,109.818,3.320873
4573,80924.4,107.042,109.656,3.355435
4585,81136.8,106.864,109.492,3.360143
4597,81349.2,106.698,109.328,3.353616
4609,81561.6,106.553,109.163,3.385276
4621,81774,106.429,109.002,3.364912
4633,81986.4,106.308,108.843,3.306166
4645,82198.8,106.188,108.686,3.295611
4657,82411.2,106.071,108.532,3.216106
4669,82623.6,105.941,108.379,3.13858
4681,82836,105.793,108.227,3.088911
4693,83048.4,105.583,108.074,3.086182
4705,83260.8,105.278,107.912,3.203382
4717,83473.2,104.946,107.74,3.357214
4729,83685.6,104.577,107.557,3.581757
4741,83898,104.121,107.357,3.887361
4753,84110.4,103.556,107.138,4.214235
4765,84322.8,102.898,106.895,4.682536
4777,84535.2,102.174,106.625,5.26852
4789,84747.6,101.419,106.327,5.810255
4801,84960,100.673,106.002,6.398505
4813,85172.4,99.9587,105.651,6.953556
4825,85384.8,99.2466,105.276,7.63691
4837,85597.2,98.6021,104.881,8.091194
4849,85809.6,97.9253,104.469,8.502103
4861,86022,97.2885,104.039,8.698599
4873,86234.4,96.6834,103.596,8.99842
4885,86446.8,96.1234,103.141,9.171413
4897,86659.2,95.6172,102.681,9.298473
4909,86871.6,95.1416,102.218,9.550078
4921,87084,94.7021,101.753,9.422617
4933,87296.4,94.2926,101.291,9.399713
4945,87508.8,93.9068,100.832,9.515775
4957,87721.2,93.5393,100.378,9.26473
4969,87933.6,93.193,99.9284,9.117937
4981,88146,92.8599,99.4859,9.022974
4993,88358.4,92.559,99.0509,8.976346
5005,88570.8,92.2737,98.6253,8.710105
5017,88783.2,92.0061,98.21,8.561529
5029,88995.6,91.758,97.8035,8.338601
5041,89208,91.5238,97.4082,8.097195
5053,89420.4,91.3064,97.0232,7.970863
5065,89632.8,91.1045,96.6495,7.67632
5077,89845.2,90.9192,96.2869,7.391307
5089,90057.6,90.7502,95.9374,7.272062
5101,90270,90.5932,95.59957,7.082826
5113,90482.4,90.4476,95.2743,6.781939
5125,90694.8,90.308,94.9606,6.528231
5137,90907.2,90.1771,94.6593,6.237494
5149,91119.6,90.0535,94.3685,5.938609
5161,91332,89.93772,94.089,5.696424
5173,91544.4,89.8282,93.8205,5.50826
5185,91756.8,89.7293,93.5623,5.186171
5197,91969.2,89.634,93.3142,5.03526
5209,92181.6,89.5474,93.0771,4.81269
5221,92394,89.4624,92.8494,4.577634
5233,92606.4,89.37731,92.6317,4.32825
5245,92818.8,89.2913,92.42327,4.095864
5257,93031.2,89.202,92.222,3.941305
5269,93243.6,89.1171,92.0282,3.756995
5281,93456,89.038,91.8415,3.559835
5293,93668.4,88.9625,91.6619,3.389675
5305,93880.8,89.03356,91.4917,3.255334
5317,94093.2,89.5656,91.3477,2.837227
5329,94305.6,90.15647,91.249,2.161406
5341,94518,90.6278,91.1916,1.348977
5353,94730.4,91.0134,91.1661,0.573017
5365,94942.8,91.3693,91.1668,-0.107463
5377,95155.2,91.7198,91.1896,-0.673045
5389,95367.6,92.0674,91.23313,-1.172243
5401,95580,92.4201,91.2973,-1.645595
5413,95792.4,92.7766,91.3787,-2.083122
5425,96004.8,93.1356,91.4789,-2.467584
5437,96217.2,93.4937,91.5951,-2.862858
5449,96429.6,93.84812,91.7278,-3.236104
5461,96642,94.2037,91.8751,-3.556898
5473,96854.4,94.5562,92.0359,-3.897266
5485,97066.8,94.9108,92.2102,-4.201808
5497,97279.2,95.2662,92.39588,-4.468511
5509,97491.6,95.6157,92.592,-4.735631
5521,97704,95.9678,92.79859,-4.993763
5533,97916.4,96.3246,93.0146,-5.216803
5545,98128.8,96.68,93.2395,-5.404572
5557,98341.2,97.0359,93.4734,-5.620698
5569,98553.6,97.394,93.7152,-5.815928
5581,98766,97.7526,93.9646,-5.995689
5593,98978.4,98.1106,94.2204,-6.155877
5605,99190.8,98.4657,94.4827,-6.336512
5617,99403.2,98.8196,94.7514,-6.47858
5629,99615.6,99.172,95.0253,-6.619317
5641,99828,99.5238,95.3052,-6.756914
5653,100040.4,99.8783,95.5888,-6.861103
5665,100252.8,100.231,95.878,-6.99513
5677,100465.2,100.585,96.1706,-7.117146
5689,100677.6,100.94,96.4668,-7.200511
5701,100890,101.297,96.7682,-7.314971
5713,101102.4,101.65,97.0721,-7.414887
5725,101314.8,102.005,97.3797,-7.486178
5737,101527.2,102.36,97.6906,-7.595691
5749,101739.6,102.712,98.0032,-7.677833
5761,101952,103.066,98.3194,-7.734062
5773,102164.4,103.423,98.6376,-7.831426
5785,102376.8,103.776,98.9582,-7.890783
5797,102589.2,104.132,99.281,-7.959181
5809,102801.6,104.484,99.6069,-8.027366
5821,103014,104.837,99.9327,-8.066932
5833,103226.4,105.189,100.261,-8.142427
5845,103438.8,105.543,100.59,-8.199394
5857,103651.2,105.896,100.92,-8.216945
5869,103863.6,106.247,101.252,-8.279314
5881,104076,106.602,101.584,-8.316732
5893,104288.4,106.959,101.917,-8.355942
5905,104500.8,107.318,102.252,-8.409052
5917,104713.2,107.6742,102.589,-8.44103
5929,104925.6,108.027,102.926,-8.498135
5941,105138,108.378,103.264,-8.534559
5953,105350.4,108.727,103.603,-8.569174
5965,105562.8,109.079,103.942,-8.605307
5977,105775.2,109.434,104.281,-8.613261
5989,105987.6,109.787,104.622,-8.661348
6001,106200,110.142,104.961,-8.687937
6013,106412.4,110.496,105.303,-8.709456
6025,106624.8,110.851,105.645,-8.737903
6037,106837.2,111.205,105.987,-8.76022
6049,107049.6,111.56,106.33,-8.806645
6061,107262,111.914,106.672,-8.823625
6073,107474.4,112.268,107.015,-8.857919
6085,107686.8,112.621,107.357,-8.88045
6097,107899.2,112.974,107.702,-8.907488
6109,108111.6,113.327,108.047,-8.937217
6121,108324,113.68,108.391,-8.953102
6133,108536.4,114.034,108.736,-8.982318
6145,108748.8,114.388,109.08,-8.995545
6157,108961.2,114.742,109.425,-9.02837
6169,109173.6,115.096,109.771,-9.053226
6181,109386,115.449,110.116,-9.064041
6193,109598.4,115.804,110.461,-9.090993
6205,109810.8,116.158,110.806,-9.105422
6217,110023.2,116.513,111.153,-9.133961
6229,110235.6,116.866,111.499,-9.155979
6241,110448,117.22,111.846,-9.18151
6253,110660.4,117.575,112.192,-9.211613
6265,110872.8,117.929,112.539,-9.220174
6277,111085.2,118.283,112.885,-9.258074
6289,111297.6,118.636,113.233,-9.280832
6301,111510,118.991,113.579,-9.297826
6313,111722.4,119.346,113.925,-9.332042
6325,111934.8,119.701,114.273,-9.351528
6337,112147.2,120.055,114.621,-9.386009
6349,112359.6,120.409,114.968,-9.422537
6361,112572,120.762,115.317,-9.441753
6373,112784.4,121.116,115.664,-9.483678
6385,112996.8,121.47,116.012,-9.513824
6397,113209.2,121.822,116.36,-9.533153
6409,113421.6,122.176,116.7069,-9.580664
6421,113634,122.531,117.055,-9.609587
6433,113846.4,122.886,117.404,-9.659632
6445,114058.8,123.24,117.752,-9.711275
6457,114271.2,123.594,118.1,-9.756277
6469,114483.6,123.949,118.449,-9.82303
6481,114696,124.304,118.798,-9.898586
6493,114908.4,124.657,119.146,-9.958427
6505,115120.8,125.011,119.494,-10.0495
6517,115333.2,125.365,119.843,-10.1276
6529,115545.6,125.719,120.192,-10.2214
6541,115758,126.074,120.542,-10.31701
6553,115970.4,126.428,120.891,-10.3869
6565,116182.8,126.781,121.241,-10.4726
6577,116395.2,127.136,121.589,-10.5027
6589,116607.6,127.489,121.939,-10.5308
6601,116820,127.844,122.287,-10.5138
6613,117032.4,128.198,122.637,-10.4802
6625,117244.8,128.551,122.987,-10.4568
6637,117457.2,128.906,123.337,-10.4367
6649,117669.6,129.26,123.686,-10.4414
6661,117882,129.612,124.036,-10.4494
6673,118094.4,129.966,124.385,-10.45643
6685,118306.8,130.319,124.736,-10.4775
6697,118519.2,130.673,125.085,-10.4805
6709,118731.6,131.028,125.435,-10.5096
6721,118944,131.382,125.784,-10.5247
6733,119156.4,131.736,126.133,-10.5269
6745,119368.8,132.089,126.484,-10.5539
6757,119581.2,132.444,126.834,-10.5647
6769,119793.6,132.798,127.183,-10.585
6781,120006,133.152,127.533,-10.6069
6793,120218.4,133.506,127.883,-10.6052
6805,120430.8,133.86,128.233,-10.6339
6817,120643.2,134.214,128.583,-10.6485
6829,120855.6,134.568,128.932,-10.6522
6841,121068,134.922,129.282,-10.6791
6853,121280.4,135.275,129.633,-10.7012
6865,121492.8,135.629,129.982,-10.70162
6877,121705.2,135.983,130.332,-10.72757
6889,121917.6,136.336,130.683,-10.7371
6901,122130,136.691,131.032,-10.7422
6913,122342.4,137.045,131.382,-10.7586
6925,122554.8,137.398,131.732,-10.7814
6937,122767.2,137.751,132.081,-10.7945
6949,122979.6,138.106,132.43,-10.7931
6961,123192,138.461,132.781,-10.82281
6973,123404.4,138.816,133.131,-10.8407
6985,123616.8,139.169,133.481,-10.8398
6997,123829.2,139.524,133.83,-10.8633
7009,124041.6,139.878,134.18,-10.88271
7021,124254,140.231,134.53,-10.8947
7033,124466.4,140.584,134.879,-10.9
7045,124678.8,140.937,135.229,-10.922
7057,124891.2,141.293,135.579,-10.9411
7069,125103.6,141.649,135.93,-10.9497
7081,125316,142.001,136.279,-10.9677
7093,125528.4,142.356,136.63,-10.9927
7105,125740.8,142.711,136.98,-10.9988
7117,125953.2,143.065,137.329,-11.01436
7129,126165.6,143.417,137.68,-11.0455
7141,126378,143.772,138.029,-11.0581
7153,126590.4,144.126,138.38,-11.0712
7165,126802.8,144.479,138.73,-11.0981
7177,127015.2,144.831,139.081,-11.1142
7189,127227.6,145.186,139.431,-11.113
7201,127440,145.54,139.782,-11.1441
7213,127652.4,145.895,140.132,-11.1621
7225,127864.8,146.25,140.483,-11.1665
7237,128077.2,146.603,140.833,-11.1965
7249,128289.6,146.957,141.183,-11.2185
7261,128502,147.308,141.535,-11.228
7273,128714.4,147.663,141.885,-11.2363
7285,128926.8,148.017,142.236,-11.2582
7297,129139.2,148.372,142.586,-11.2711
7309,129351.6,148.725,142.937,-11.2596
7321,129564,149.077,143.288,-11.2873
7333,129776.4,149.429,143.638,-11.2944
7345,129988.8,149.782,143.987,-11.28
7357,130201.2,150.134,144.337,-11.2572
7369,130413.6,150.487,144.686,-11.2567
7381,130626,150.846,145.035,-11.2254
7393,130838.4,151.198,145.384,-11.1911
7405,131050.8,151.553,145.733,-11.151
7417,131263.2,151.916,146.083,-11.1162
7429,131475.6,152.28,146.433,-11.0397
7441,131688,152.624,146.785,-10.9865
7453,131900.4,152.957,147.134,-10.9055
7465,132112.8,153.311,147.482,-10.7619
7477,132325.2,153.679,147.83,-10.588
7489,132537.6,154.045,148.18,-10.4481
7501,132750,154.403,148.531,-10.29497
7513,132962.4,154.733,148.881,-10.099
7525,133174.8,155.078,149.229,-9.838431
7537,133387.2,155.444,149.576,-9.543507
7549,133599.6,155.815,149.926,-9.232549
7561,133812,156.174,150.276,-8.932377
7573,134024.4,156.518,150.627,-8.599163
7585,134236.8,156.868,150.978,-8.189191
7597,134449.2,157.195,151.328,-7.733231
7609,134661.6,157.539,151.673,-7.196464
7621,134874,157.909,152.019,-6.620499
7633,135086.4,158.284,152.365,-6.054374
7645,135298.8,158.654,152.714,-5.497736
7657,135511.2,158.996,153.0633,-4.929056
7669,135723.6,159.349,153.414,-4.318358
7681,135936,159.713,153.764,-3.71106
7693,136148.4,160.075,154.116,-3.153657
7705,136360.8,160.412,154.469,-2.624511
7717,136573.2,160.74,154.819,-2.16273
7729,136785.6,161.095,155.167,-1.826068
7741,136998,161.465,155.5148,-1.705057
7753,137210.4,161.836,155.865,-1.948542
7765,137422.8,162.198,156.217,-2.579467
7777,137635.2,162.555,156.571,-3.520615
7789,137847.6,162.907,156.926,-4.731226
7801,138060,163.238,157.28,-6.11755
7813,138272.4,163.583,157.632,-7.414659
7825,138484.8,163.95,157.985,-8.539909
7837,138697.2,164.319,158.337,-9.485546
7849,138909.6,164.67,158.692,-10.1982
7861,139122,165.012,159.046,-10.6827
7873,139334.4,165.369,159.4,-10.9838
7885,139546.8,165.732,159.755,-11.1971
7897,139759.2,166.091,160.11,-11.328
7909,139971.6,166.44,160.468,-11.4734
7921,140184,166.788,160.824,-11.5529
7933,140396.4,167.144,161.181,-11.6128
7945,140608.8,167.488,161.536,-11.6781
7957,140821.2,167.831,161.891,-11.6862
7969,141033.6,168.195,162.244,-11.7016
7981,141246,168.552,162.598,-11.6869
7993,141458.4,168.901,162.952,-11.693
8005,141670.8,169.26,163.306,-11.69119
8017,141883.2,169.613,163.661,-11.7107
8029,142095.6,169.954,164.014,-11.7195
8041,142308,170.313,164.365,-11.6941
8053,142520.4,170.683,164.718,-11.7165
8065,142732.8,171.045,165.073,-11.7796
8077,142945.2,171.397,165.427,-11.79623
8089,143157.6,171.747,165.783,-11.8271
8101,143370,172.081,166.138,-11.846
8113,143582.4,172.416,166.49,-11.8646
8125,143794.8,172.779,166.84,-11.8108
8137,144007.2,173.15,167.19,-11.8615
8149,144219.6,173.518,167.542,-11.8692
8161,144432,173.876,167.895,-11.8599
8173,144644.4,174.216,168.249,-11.9478
8185,144856.8,174.566,168.602,-12.0288
8197,145069.2,174.929,168.955,-12.05372
8209,145281.6,175.275,169.308,-12.196
8221,145494,175.606,169.659,-12.4029
8233,145706.4,175.957,170.009,-12.7832
8245,145918.8,176.325,170.357,-13.8316
8257,146131.2,176.694,170.706,-18.0829
8269,146343.6,177.061,171.057,-22.4637
8281,146556,177.395,171.409,-28.6316
8293,146768.4,177.738,171.758,-22.9756
8305,146980.8,178.103,172.108,-3.936462
8317,147193.2,178.468,172.459,1.594919
8329,147405.6,178.832,172.812,-0.900386
8341,147618,179.187,173.166,-5.481897
8353,147830.4,179.5287,173.519,-8.968589
8365,148042.8,179.877,173.872,-10.7864
8377,148255.2,180.235,174.224,-11.6716
8389,148467.6,180.591,174.578,-12.0984
8401,148680,180.939,174.931,-12.31585
8413,148892.4,181.291,175.283,-12.5401
8425,149104.8,181.642,175.636,-13.11682
8437,149317.2,181.99,175.988,-17.8685
8449,149529.6,182.346,176.338,-45.3217
8461,149742,182.713,176.688,-47.02134
8473,149954.4,183.075,177.038,-52.4301
8485,150166.8,183.436,177.39,-73.8759
8497,150379.2,183.789,177.744,-38.0246
8509,150591.6,184.136,178.099,-23.7012
8521,150804,184.488,178.454,-17.6903
8533,151016.4,184.839,178.809,-15.2569
8545,151228.8,185.19,179.165,-14.2008
8557,151441.2,185.538,179.519,-13.8034
8569,151653.6,185.896,179.873,-13.6369
8581,151866,186.251,180.227,-13.5258
8593,152078.4,186.604,180.581,-13.5152
8605,152290.8,186.957,180.934,-13.4763
8617,152503.2,187.311,181.288,-13.46745
8629,152715.6,187.664,181.642,-13.4933
8641,152928,188.023,181.996,-13.5399
8653,153140.4,188.375,182.349,-13.5195
8665,153352.8,188.732,182.703,-13.5811
8677,153565.2,189.091,183.057,-13.6189
8689,153777.6,189.454,183.412,-13.6108
8701,153990,189.809,183.77,-13.65207
8713,154202.4,190.135,184.125,-13.7297
8725,154414.8,190.474,184.477,-13.7466
8737,154627.2,190.836,184.826,-13.6819
8749,154839.6,191.205,185.179,-13.6348
8761,155052,191.57,185.531,-13.654
8773,155264.4,191.917,185.885,-13.7032
8785,155476.8,192.255,186.237,-13.7847
8797,155689.2,192.611,186.587,-13.7467
8809,155901.6,192.979,186.939,-13.6947
8821,156114,193.344,187.291,-13.7443
8833,156326.4,193.681,187.645,-13.8114
8845,156538.8,194.022,187.995,-13.8831
8857,156751.2,194.385,188.347,-13.8674
8869,156963.6,194.752,188.699,-13.9248
8881,157176,195.115,189.052,-13.83207
8893,157388.4,195.469,189.406,-13.8752
8905,157600.8,195.814,189.761,-13.94712
8917,157813.2,196.16,190.115,-14.0074
8929,158025.6,196.517,190.468,-13.9736
8941,158238,196.874,190.822,-14.01951
8953,158450.4,197.217,191.176,-14.0388
8965,158662.8,197.571,191.528,-14.0297
8977,158875.2,197.928,191.88,-14.0569
8989,159087.6,198.284,192.232,-14.0608
9001,159300,198.636,192.585,-14.1632
9013,159512.4,198.994,192.937,-14.1673
9025,159724.8,199.353,193.29,-14.1632
9037,159937.2,199.702,193.642,-14.22425
9049,160149.6,200.059,193.995,-14.2781
9061,160362,200.422,194.348,-14.2775
9073,160574.4,200.78,194.704,-14.2786
9085,160786.8,201.117,195.058,-14.3825
9097,160999.2,201.465,195.411,-14.3695
9109,161211.6,201.827,195.764,-14.3833
9121,161424,202.19,196.117,-14.4286
9133,161636.4,202.539,196.471,-14.3826
9145,161848.8,202.883,196.824,-14.3869
9157,162061.2,203.241,197.178,-14.3647
9169,162273.6,203.602,197.531,-14.3544
9181,162486,203.963,197.886,-14.53469
9193,162698.4,204.309,198.241,-14.5177
9205,162910.8,204.652,198.595,-14.5083
9217,163123.2,205.01,198.948,-14.6164
9229,163335.6,205.374,199.302,-14.6902
9241,163548,205.737,199.657,-14.6905
9253,163760.4,206.082,200.012,-14.61962
9265,163972.8,206.429,200.368,-14.7166
9277,164185.2,206.79,200.723,-14.7639
9289,164397.6,207.149,201.078,-14.7439
9301,164610,207.503,201.436,-14.7724
9313,164822.4,207.855,201.793,-14.856
9325,165034.8,208.209,202.149,-14.9231
9337,165247.2,208.553,202.506,-14.9209
9349,165459.6,208.888,202.86,-14.8775
9361,165672,209.247,203.212,-14.9783
9373,165884.4,209.612,203.566,-14.9178
9385,166096.8,209.975,203.92,-14.9206
9397,166309.2,210.339,204.275,-14.912
9409,166521.6,210.682,204.631,-15.0385
9421,166734,211.033,204.986,-15.0826
9433,166946.4,211.392,205.341,-15.1458
9445,167158.8,211.756,205.697,-15.1624
9457,167371.2,212.112,206.054,-15.2514
9469,167583.6,212.472,206.413,-15.275
9481,167796,212.817,206.772,-15.3311
9493,168008.4,213.156,207.13,-15.4633
9505,168220.8,213.514,207.488,-15.5584
9517,168433.2,213.876,207.846,-15.4977
9529,168645.6,214.233,208.205,-15.5838
9541,168858,214.587,208.565,-15.5755
9553,169070.4,214.931,208.924,-15.5202
9565,169282.8,215.284,209.283,-15.5822
9577,169495.2,215.644,209.642,-15.6493
9589,169707.6,216.007,210.002,-15.6453
9601,169920,216.361,210.363,-15.6993
9613,170132.4,216.701,210.724,-15.8057
9625,170344.8,217.054,211.083,-15.8137
9637,170557.2,217.411,211.443,-15.8497
9649,170769.6,217.774,211.803,-15.8562
9661,170982,218.136,212.166,-15.93289
9673,171194.4,218.474,212.528,-15.978
9685,171406.8,218.814,212.889,-16.0274
9697,171619.2,219.175,213.248,-16.1304
9709,171831.6,219.54,213.608,-16.0293
9721,172044,219.907,213.97,-16.157
9733,172256.4,220.261,214.333,-16.2574
9745,172468.8,220.596,214.696,-16.2492
9757,172681.2,220.95,215.057,-16.1754
9769,172893.6,221.309,215.419,-16.2552
9781,173106,221.672,215.781,-16.3237
9793,173318.4,222.033,216.145,-16.458
9805,173530.8,222.376,216.511,-16.6483
9817,173743.2,222.718,216.874,-16.7298
9829,173955.6,223.076,217.237,-16.5796
9841,174168,223.437,217.599,-16.4917
9853,174380.4,223.8,217.964,-16.5588
9865,174592.8,224.152,218.329,-16.6608
9877,174805.2,224.491,218.694,-16.8504
9889,175017.6,224.84,219.057,-16.8903
9901,175230,225.2,219.42,-16.8582
9913,175442.4,225.562,219.783,-16.8942
9925,175654.8,225.924,220.149,-16.7893
9937,175867.2,226.273,220.514,-16.9577
9949,176079.6,226.622,220.879,-17.00664
9961,176292,226.979,221.244,-17.0702
9973,176504.4,227.336,221.61,-17.181
9985,176716.8,227.693,221.976,-17.2281
9997,176929.2,228.044,222.342,-17.3282
10009,177141.6,228.392,222.709,-17.3352
10021,177354,228.744,223.075,-17.4613
10033,177566.4,229.095,223.44,-17.51191
10045,177778.8,229.447,223.805,-17.5372
10057,177991.2,229.798,224.169,-17.58629
10069,178203.6,230.151,224.532,-17.5991
10081,178416,230.506,224.895,-17.6785
10093,178628.4,230.861,225.257,-17.7202
10105,178840.8,231.216,225.62,-17.5759
10117,179053.2,231.571,225.982,-17.7027
10129,179265.6,231.927,226.343,-17.7107
10141,179478,232.282,226.705,-17.7968
10153,179690.4,232.634,227.067,-17.7385
10165,179902.8,232.988,227.429,-17.7196
10177,180115.2,233.341,227.791,-17.8179
10189,180327.6,233.696,228.152,-17.9268
10201,180540,234.051,228.513,-17.9625
10213,180752.4,234.409,228.874,-18.008
10225,180964.8,234.764,229.236,-18.1116
10237,181177.2,235.116,229.598,-18.2549
10249,181389.6,235.465,229.961,-18.3004
10261,181602,235.818,230.321,-18.3948
10273,181814.4,236.172,230.682,-18.5173
10285,182026.8,236.525,231.042,-18.5168
10297,182239.2,236.877,231.402,-18.5061
10309,182451.6,237.232,231.761,-18.6302
10321,182664,237.587,232.12,-18.7375
10333,182876.4,237.942,232.48,-18.8352
10345,183088.8,238.296,232.84,-18.9908
10357,183301.2,238.651,233.198,-18.87653
10369,183513.6,239.002,233.558,-18.9702
10381,183726,239.355,233.917,-18.8345
10393,183938.4,239.713,234.276,-19.0102
10405,184150.8,240.068,234.635,-19.065
10417,184363.2,240.421,234.994,-19.2639
10429,184575.6,240.775,235.354,-19.4156
10441,184788,241.129,235.713,-19.3821
10453,185000.4,241.484,236.073,-19.661
10465,185212.8,241.837,236.431,-19.7457
10477,185425.2,242.191,236.791,-19.9391
10489,185637.6,242.544,237.149,-20.0852
10501,185850,242.899,237.508,-20.1729
10513,186062.4,243.254,237.8687,-20.1168
10525,186274.8,243.608,238.227,-20.16292
10537,186487.2,243.962,238.588,-20.25906
10549,186699.6,244.316,238.947,-20.5359
10561,186912,244.67,239.307,-20.6536
10573,187124.4,245.024,239.666,-20.6404
10585,187336.8,245.378,240.025,-20.8747
10597,187549.2,245.732,240.384,-21.1509
10609,187761.6,246.085,240.744,-21.257
10621,187974,246.439,241.103,-21.37067
10633,188186.4,246.791,241.462,-21.587
10645,188398.8,247.144,241.82,-21.5866
10657,188611.2,247.496,242.179,-21.818
10669,188823.6,247.85,242.537,-21.8134
10681,189036,248.202,242.895,-22.04301
10693,189248.4,248.556,243.252,-22.2975
10705,189460.8,248.91,243.61,-22.4737
10717,189673.2,249.265,243.967,-22.564
10729,189885.6,249.619,244.324,-22.6671
10741,190098,249.974,244.681,-22.8953
10753,190310.4,250.328,245.038,-23.0996
10765,190522.8,250.682,245.394,-23.2156
10777,190735.2,251.036,245.751,-23.3274
10789,190947.6,251.391,246.107,-23.6356
10801,191160,251.745,246.463,-23.8899
10813,191372.4,252.099,246.819,-24.1684
10825,191584.8,252.453,247.176,-24.3944
10837,191797.2,252.808,247.532,-24.3878
10849,192009.6,253.162,247.888,-24.5352
10861,192222,253.514,248.245,-25.1035
10873,192434.4,253.869,248.602,-25.4923
10885,192646.8,254.224,248.958,-25.7331
10897,192859.2,254.577,249.314,-26.1071
10909,193071.6,254.933,249.669,-26.4601
10921,193284,255.285,250.026,-26.758
10933,193496.4,255.638,250.382,-26.9927
10945,193708.8,255.993,250.738,-27.4522
10957,193921.2,256.345,251.094,-27.8216
10969,194133.6,256.7,251.45,-28.2429
10981,194346,257.054,251.806,-28.65454
10993,194558.4,257.408,252.162,-29.0895
11005,194770.8,257.762,252.518,-29.277
11017,194983.2,258.116,252.873,-29.78753
11029,195195.6,258.471,253.229,-30.383
11041,195408,258.825,253.585,-30.97
11053,195620.4,259.18,253.94,-31.5236
11065,195832.8,259.533,254.297,-32.1055
11077,196045.2,259.887,254.653,-32.701
11089,196257.6,260.243,255.008,-33.1514
11101,196470,260.597,255.364,-33.8097
11113,196682.4,260.952,255.721,-34.6412
11125,196894.8,261.307,256.076,-35.3571
11137,197107.2,261.661,256.433,-36.1066
11149,197319.6,262.014,256.789,-36.9229
11161,197532,262.368,257.146,-37.8397
11173,197744.4,262.722,257.502,-38.8135
11185,197956.8,263.077,257.859,-39.83189
11197,198169.2,263.429,258.217,-40.8564
11209,198381.6,263.782,258.572,-41.926
11221,198594,264.136,258.929,-43.1042
11233,198806.4,264.49,259.285,-44.3748
11245,199018.8,264.843,259.641,-45.6995
11257,199231.2,265.198,259.997,-47.106
11269,199443.6,265.551,260.353,-48.5928
11281,199656,265.906,260.709,-50.2205
11293,199868.4,266.259,261.065,-51.9659
11305,200080.8,266.612,261.421,-53.7254
11317,200293.2,266.965,261.777,-55.7155
11329,200505.6,267.319,262.131,-57.8793
11341,200718,267.672,262.486,-60.1596
11353,200930.4,268.025,262.841,-62.6257
11365,201142.8,268.378,263.195,-65.3013
11377,201355.2,268.732,263.549,-68.1373
11389,201567.6,269.085,263.903,-71.22447
11401,201780,269.4391,264.256,-74.4896
11413,201992.4,269.793,264.609,-78.12599
11425,202204.8,270.147,264.962,-82.0566
11437,202417.2,270.5,265.314,-86.3369
11449,202629.6,270.852,265.666,-91.0542
11461,202842,271.209,266.018,-96.1043
11473,203054.4,271.568,266.37,-101.568
11485,203266.8,271.925,266.721,-107.458
11497,203479.2,272.275,267.074,-113.96
11509,203691.6,272.624,267.426,-120.866
11521,203904,272.981,267.777,-128.267
11533,204116.4,273.338,268.128,-136.55
11545,204328.8,273.685,268.479,-145.79
11557,204541.2,274.037,268.829,-155.799
11569,204753.6,274.396,269.178,-166.689
11581,204966,274.75,269.529,-178.595
11593,205178.4,275.098,269.878,-191.448
11605,205390.8,275.452,270.225,-205.313
11617,205603.2,275.811,270.573,-220.386
11629,205815.6,276.162,270.921,-236.894
11641,206028,276.517,271.267,-254.409
11653,206240.4,276.871,271.615,-272.145
11665,206452.8,277.215,271.96,-288.919
11677,206665.2,277.566,272.304,-305.312
11689,206877.6,277.926,272.647,-320.732
11701,207090,278.289,272.99,-333.923
11713,207302.4,278.634,273.335,-342.815
11725,207514.8,278.982,273.677,-343.393
11737,207727.2,279.341,274.02,-333.263
11749,207939.6,279.706,274.364,-306.963
11761,208152,280.069,274.712,-260.158
11773,208364.4,280.421,275.064,-156.223
11785,208576.8,280.753,275.418,-97.2233
11797,208789.2,281.103,275.77,-66.7103
11809,209001.6,281.465,276.122,-50.9355
11821,209214,281.829,276.474,-42.77101
11833,209426.4,282.18,276.827,-38.6124
11845,209638.8,282.521,277.179,-36.4853
11857,209851.2,282.876,277.528,-35.331
11869,210063.6,283.242,277.879,-34.7053
11881,210276,283.607,278.231,-34.3879
11893,210488.4,283.966,278.584,-34.2819
11905,210700.8,284.309,278.938,-34.2732
11917,210913.2,284.659,279.291,-34.2809
11929,211125.6,285.02,279.644,-34.2555
11941,211338,285.377,279.997,-34.2386
11953,211550.4,285.726,280.35,-34.2416
11965,211762.8,286.082,280.703,-34.2745
11977,211975.2,286.442,281.057,-34.3128
11989,212187.6,286.789,281.412,-34.3569
12001,212400,287.13,281.764,-34.3342
12013,212612.4,287.489,282.116,-34.299
12025,212824.8,287.851,282.468,-34.2528
12037,213037.2,288.207,282.82,-34.26275
12049,213249.6,288.549,283.172,-34.2461
12061,213462,288.905,283.523,-34.2021
12073,213674.4,289.265,283.874,-34.1902
12085,213886.8,289.624,284.227,-34.2021
12097,214099.2,289.977,284.58,-34.2261
12109,214311.6,290.332,284.933,-34.2763
12121,214524,290.668,285.284,-34.3049
12133,214736.4,291.013,285.633,-34.2937
12145,214948.8,291.376,285.98,-34.1969
12157,215161.2,291.743,286.329,-34.1061
12169,215373.6,292.099,286.68,-34.0828
12181,215586,292.441,287.031,-34.1005
12193,215798.4,292.797,287.38,-34.0841
12205,216010.8,293.158,287.729,-34.0577
12217,216223.2,293.523,288.08,-34.08249
12229,216435.6,293.8666,288.432,-34.1598
12241,216648,294.214,288.78,-34.206
12253,216860.4,294.577,289.131,-34.1947
12265,217072.8,294.938,289.481,-34.1972
12277,217285.2,295.29,289.835,-34.2331
12289,217497.6,295.633,290.187,-34.301
12301,217710,295.988,290.537,-34.30611
12313,217922.4,296.351,290.888,-34.2735
12325,218134.8,296.717,291.241,-34.2804
12337,218347.2,297.07,291.596,-34.3455
12349,218559.6,297.424,291.951,-34.43695
12361,218772,297.771,292.306,-34.5212
12373,218984.4,298.119,292.66,-34.5858
12385,219196.8,298.475,293.014,-34.5862
12397,219409.2,298.835,293.368,-34.5815
12409,219621.6,299.181,293.72,-34.566
12421,219834,299.527,294.071,-34.5416
12433,220046.4,299.885,294.42,-34.4373
12445,220258.8,300.248,294.769,-34.3418
12457,220471.2,300.61,295.123,-34.3137
12469,220683.6,300.967,295.481,-34.4499
12481,220896,301.318,295.842,-34.6841
12493,221108.4,301.667,296.203,-34.93299
12505,221320.8,302.016,296.566,-35.1279
12517,221533.2,302.366,296.927,-35.2306
12529,221745.6,302.713,297.285,-35.2613
12541,221958,303.069,297.642,-35.2444
12553,222170.4,303.43,298,-35.1848
12565,222382.8,303.784,298.357,-35.1572
12577,222595.2,304.14,298.716,-35.1384
12589,222807.6,304.491,299.074,-35.1401
12601,223020,304.827,299.43,-35.1503
12613,223232.4,305.18,299.783,-35.0781
12625,223444.8,305.542,300.135,-34.95705
12637,223657.2,305.907,300.489,-34.8564
12649,223869.6,306.249,300.842,-34.85077
12661,224082,306.597,301.193,-34.8229
12673,224294.4,306.962,301.544,-34.7536
12685,224506.8,307.327,301.897,-34.7063
12697,224719.2,307.69,302.251,-34.7297
12709,224931.6,308.041,302.607,-34.8267
12721,225144,308.391,302.964,-34.9272
12733,225356.4,308.742,303.32,-35.0376
12745,225568.8,309.082,303.674,-35.1359
12757,225781.2,309.439,304.027,-35.1034
12769,225993.6,309.801,304.381,-35.0492
12781,226206,310.153,304.735,-35.0431
12793,226418.4,310.501,305.089,-35.0724
12805,226630.8,310.856,305.442,-35.0708
12817,226843.2,311.219,305.797,-35.067
12829,227055.6,311.582,306.153,-35.0871
12841,227268,311.937,306.51,-35.1838
12853,227480.4,312.277,306.867,-35.3173
12865,227692.8,312.629,307.222,-35.3703
12877,227905.2,312.992,307.577,-35.36058
12889,228117.6,313.352,307.934,-35.3784
12901,228330,313.708,308.292,-35.4513
12913,228542.4,314.048,308.651,-35.551
12925,228754.8,314.403,309.007,-35.5849
12937,228967.2,314.764,309.364,-35.5777
12949,229179.6,315.123,309.723,-35.6033
12961,229392,315.478,310.083,-35.6627
12973,229604.4,315.82,310.444,-35.7439
12985,229816.8,316.166,310.801,-35.7595
12997,230029.2,316.522,311.156,-35.72389
13009,230241.6,316.882,311.512,-35.695
13021,230454,317.223,311.867,-35.6777
13033,230666.4,317.573,312.22,-35.6307
13045,230878.8,317.937,312.572,-35.548
13057,231091.2,318.293,312.927,-35.492
13069,231303.6,318.635,313.278,-35.503
13081,231516,318.995,313.63,-35.4613
13093,231728.4,319.213,313.981,-35.4176
13105,231940.8,319.192,314.309,-35.1707
13117,232153.2,319.164,314.607,-34.2441
13129,232365.6,319.156,314.877,-32.5891
13141,232578,319.163,315.124,-30.528
13153,232790.4,319.164,315.35,-28.3668
13165,233002.8,319.153,315.557,-26.2667
13177,233215.2,319.155,315.744,-24.2137
13189,233427.6,319.159,315.915,-22.2728
13201,233640,319.159,316.073,-20.5083
13213,233852.4,319.157,316.217,-18.8729
13225,234064.8,319.161,316.347,-17.3851
13237,234277.2,319.171,316.468,-16.0147
13249,234489.6,319.171,316.58,-14.82162
13261,234702,319.173,316.685,-13.7445
13273,234914.4,319.163,316.78,-12.78
13285,235126.8,319.157,316.867,-11.8409
13297,235339.2,319.152,316.945,-10.8619
13309,235551.6,319.143,317.017,-9.961933
13321,235764,319.149,317.081,-9.083567
13333,235976.4,319.156,317.14,-8.291261
13345,236188.8,319.144,317.194,-7.628219
13357,236401.2,319.137,317.24,-6.989413
13369,236613.6,319.143,317.283,-6.352185
13381,236826,319.151,317.321,-5.794197
13393,237038.4,319.147,317.356,-5.332819
13405,237250.8,319.147,317.387,-4.903894
13417,237463.2,319.153,317.416,-4.501331
13429,237675.6,319.159,317.444,-4.159393
13441,237888,319.159,317.471,-3.889046
13453,238100.4,319.161,317.495,-3.65518
13465,238312.8,319.166,317.519,-3.453902
13477,238525.2,319.168,317.542,-3.286222
13489,238737.6,319.168,317.564,-3.153158
13501,238950,319.161,317.586,-3.038494
13513,239162.4,319.16,317.605,-2.897172
13525,239374.8,319.159,317.623,-2.725305
13537,239587.2,319.159,317.64,-2.563739
13549,239799.6,319.157,317.656,-2.417202
13561,240012,319.156,317.67,-2.284343
13573,240224.4,319.159,317.684,-2.152331
13585,240436.8,319.163,317.697,-2.035008
13597,240649.2,319.16,317.709,-1.968489
13609,240861.6,319.158,317.722,-1.881212
13621,241074,319.158,317.733,-1.79242
13633,241286.4,319.159,317.744,-1.700929
13645,241498.8,319.16,317.754,-1.61771
13657,241711.2,319.161,317.766,-1.557444
13669,241923.6,319.161,317.776,-1.501569
13681,242136,319.161,317.787,-1.4489
13693,242348.4,319.161,317.797,-1.406528
13705,242560.8,319.15,317.806,-1.384411
13717,242773.2,319.143,317.812,-1.307615
13729,242985.6,319.146,317.817,-1.179853
13741,243198,319.144,317.822,-1.065256
13753,243410.4,319.144,317.826,-0.943067
13765,243622.8,319.148,317.829,-0.831847
13777,243835.2,319.134,317.83,-0.732106
13789,244047.6,319.132,317.831,-0.601988
13801,244260,319.141,317.829,-0.464782
13813,244472.4,319.135,317.828,-0.361666
13825,244684.8,319.131,317.825,-0.27087
13837,244897.2,319.137,317.821,-0.15746
13849,245109.6,319.144,317.818,-0.065482
13861,245322,319.145,317.816,-0.011983
13873,245534.4,319.149,317.814,0.01097
13885,245746.8,319.137,317.811,0.010295
13897,245959.2,319.134,317.806,0.092148
13909,246171.6,319.143,317.802,0.215518
13921,246384,319.145,317.799,0.304967
13933,246596.4,319.133,317.794,0.3637
13945,246808.8,319.139,317.789,0.508001
13957,247021.2,319.146,317.784,0.606396
13969,247233.6,319.139,317.78,0.634752
13981,247446,319.133,317.774,0.665977
13993,247658.4,319.139,317.768,0.766569
14005,247870.8,319.148,317.762,0.841677
14017,248083.2,319.156,317.758,0.846405
14029,248295.6,319.158,317.756,0.782778
14041,248508,319.158,317.755,0.692484
14053,248720.4,319.138,317.753,0.602697
14065,248932.8,319.133,317.749,0.616032
14077,249145.2,319.144,317.743,0.706667
14089,249357.6,319.154,317.74,0.767091
14101,249570,319.161,317.739,0.755952
14113,249782.4,319.16,317.739,0.685741
14125,249994.8,319.161,317.74,0.595276
14137,250207.2,319.156,317.742,0.506668
14149,250419.6,319.137,317.74,0.44152
14161,250632,319.139,317.738,0.504981
14173,250844.4,319.148,317.736,0.596459
14185,251056.8,319.154,317.735,0.637473
14197,251269.2,319.155,317.735,0.625996
14209,251481.6,319.158,317.735,0.596122
14221,251694,319.16,317.736,0.544982
14233,251906.4,319.155,317.739,0.480846
14245,252118.8,319.15,317.739,0.441352
14257,252331.2,319.153,317.7405,0.450803
14269,252543.6,319.159,317.742,0.460254
14281,252756,319.162,317.744,0.435274
14293,252968.4,319.16,317.748,0.390716
14305,253180.8,319.16,317.751,0.359154
14317,253393.2,319.163,317.755,0.321179
14329,253605.6,319.156,317.759,0.286748
14341,253818,319.148,317.762,0.270039
14353,254030.4,319.153,317.765,0.298898
14365,254242.8,319.161,317.769,0.320838
14377,254455.2,319.162,317.773,0.324719
14389,254667.6,319.151,317.776,0.304803
14401,254880,319.152,317.779,0.324886
14413,255092.4,319.156,317.782,0.341763
14425,255304.8,319.163,317.786,0.333323
14437,255517.2,319.153,317.79,0.317964
14449,255729.6,319.143,317.792,0.323196
14461,255942,319.148,317.794,0.37602
14473,256154.4,319.153,317.796,0.425301
14485,256366.8,319.16,317.799,0.428169
14497,256579.2,319.155,317.802,0.420404
14509,256791.6,319.156,317.806,0.400995
14521,257004,319.16,317.809,0.380067
14533,257216.4,319.167,317.814,0.362682
14545,257428.8,319.169,317.821,0.305299
14557,257641.2,319.161,317.828,0.226822
14569,257853.6,319.157,317.835,0.180073
14581,258066,319.159,317.839,0.17214
14593,258278.4,319.162,317.845,0.189522
14605,258490.8,319.165,317.851,0.181758
14617,258703.2,319.156,317.857,0.151886
14629,258915.6,319.154,317.862,0.155598
14641,259128,319.156,317.866,0.190869
14653,259340.4,319.162,317.872,0.214326
14665,259552.8,319.161,317.878,0.21905
14677,259765.2,319.158,317.884,0.207574
14689,259977.6,319.159,317.89,0.20386
14701,260190,319.163,317.897,0.202509
14713,260402.4,319.165,317.904,0.195927
14725,260614.8,319.156,317.91,0.170781
14737,260827.2,319.153,317.915,0.192044
14749,261039.6,319.156,317.921,0.232882
14761,261252,319.161,317.927,0.252794
14773,261464.4,319.162,317.934,0.271186
14785,261676.8,319.161,317.939,0.260891
14797,261889.2,319.16,317.944,0.248909
14809,262101.6,319.163,317.951,0.23777
14821,262314,319.164,317.958,0.239288
14833,262526.4,319.163,317.966,0.228149
14845,262738.8,319.16,317.973,0.219879
14857,262951.2,319.158,317.98,0.220553
14869,263163.6,319.151,317.986,0.239789
14881,263376,319.15,317.99,0.285181
14893,263588.4,319.153,317.994,0.347616
14905,263800.8,319.155,317.998,0.397058
14917,264013.2,319.157,318.004,0.428442
14929,264225.6,319.157,318.009,0.443459
14941,264438,319.156,318.014,0.442951
14953,264650.4,319.156,318.019,0.450881
14956,264703.5,319.157,318.02,0.449868