File: z_unorganized_archive/archive/0.25Kmin_wrong_wt%/data/10wt%_climb_proc.txt
 Index  Time(s)  Furnace Temperature(K)  Sample Temperature(K)  HeatFlow(mW)  Q_Corrected       Fc
  8501  98600.0              127.955             117.74    -18.5179   -16.0399      NaN
  8508  98681.2              128.294             117.996    -18.813   -16.3045      NaN
  8515  98762.4              128.632             118.254    -19.1318   -16.6128      NaN
  8522  98843.6              128.97             118.513    -19.4726   -16.938      NaN
  8529  98924.8              129.309             118.775    -19.8189   -17.2704      NaN
  8536  99006.0              129.649             119.038    -20.181   -17.6249      NaN
  8543  99087.2              129.987             119.303    -20.5542   -17.9748      NaN
  8550  99168.4              130.326             119.57    -20.9608   -18.3692      NaN
  8557  99249.6              130.665             119.839    -21.4064   -18.8002      NaN
  8564  99330.8              131.003             120.109    -21.8782   -19.2655      NaN
  8571  99412.0              131.341             120.381    -22.3785   -19.7576      NaN
  8578  99493.2              131.679             120.655    -22.9187   -20.2836      NaN
  8585  99574.4              132.017             120.931    -23.5035   -20.85      NaN
  8592  99655.6              132.355             121.207    -24.117   -21.4526      NaN
  8599  99736.8              132.694             121.486    -24.776   -22.0956      NaN
  8606  99818.0              133.032             121.765    -25.4637   -22.7908      NaN
  8613  99899.2              133.372             122.047    -26.1574   -23.4675      NaN
  8620  99980.4              133.709             122.329    -26.8292   -24.1306      NaN
  8627 100061.6              134.048             122.612    -27.4497   -24.7419      NaN
  8634 100142.8              134.386             122.898    -27.9719   -25.2396      NaN
  8641 100224.0              134.725             123.184    -28.3358   -25.6118      NaN
  8648 100305.2              135.064             123.471    -28.5286   -25.7992      NaN
  8655 100386.4              135.404             123.761    -28.5149   -25.7703      NaN
  8662 100467.6              135.742             124.051    -28.322   -25.5637      NaN
  8669 100548.8              136.08             124.342    -28.0383   -25.2857      NaN
  8676 100630.0              136.418             124.634    -27.7281   -24.9607      NaN
  8683 100711.2              136.756             124.928    -27.4608   -24.6815      NaN
  8690 100792.4              137.095             125.222    -27.254   -24.4718      NaN
  8697 100873.6              137.433             125.517    -27.1335   -24.3378      NaN
  8704 100954.8              137.772             125.814    -27.0634   -24.2721      NaN
  8711 101036.0              138.111             126.112    -27.0479   -24.2505      NaN
  8718 101117.2              138.45             126.411    -27.0439   -24.2317      NaN
  8725 101198.4              138.79             126.71    -27.0962   -24.2849      NaN
  8732 101279.6              139.128             127.011    -27.1544   -24.3381      NaN
  8739 101360.8              139.467             127.313    -27.2372   -24.4204      NaN
  8746 101442.0              139.805             127.616    -27.3208   -24.4977      NaN
  8753 101523.2              140.143             127.918    -27.4163   -24.5842      NaN
  8760 101604.4              140.481             128.222    -27.5044   -24.6705      NaN
  8767 101685.6              140.819             128.527    -27.6027   -24.759      NaN
  8774 101766.8              141.157             128.833    -27.7018   -24.8639      NaN
  8781 101848.0              141.496             129.14    -27.8206   -24.9895      NaN
  8788 101929.2              141.834             129.446    -27.936   -25.0856      NaN
  8795 102010.4              142.173             129.755    -28.0355   -25.1727      NaN
  8802 102091.6              142.512             130.064    -28.1507   -25.2939      NaN
  8809 102172.8              142.85             130.373    -28.2495   -25.4004      NaN
  8816 102254.0              143.19             130.684    -28.3489   -25.5027      NaN
  8823 102335.2              143.528             130.994    -28.4544   -25.5912      NaN
  8830 102416.4              143.866             131.306    -28.5544   -25.6842      NaN
  8837 102497.6              144.204             131.619    -28.6648   -25.8028      NaN
  8844 102578.8              144.543             131.93    -28.7745   -25.9017      NaN
  8851 102660.0              144.881             132.244    -28.868   -25.9976      NaN
  8858 102741.2              145.22             132.558    -28.9703   -26.1039      NaN
  8865 102822.4              145.558             132.873    -29.0739   -26.1996      NaN
  8872 102903.6              145.895             133.188    -29.168   -26.2891      NaN
  8879 102984.8              146.234             133.504    -29.2574   -26.3753      NaN
  8886 103066.0              146.572             133.82    -29.3571   -26.4896      NaN
  8893 103147.2              146.911             134.137    -29.4318   -26.56      NaN
  8900 103228.4              147.25             134.455    -29.5291   -26.6447      NaN
  8907 103309.6              147.588             134.772    -29.619   -26.729      NaN
  8914 103390.8              147.927             135.09    -29.7032   -26.8242      NaN
  8921 103472.0              148.265             135.41    -29.7699   -26.8908      NaN
  8928 103553.2              148.602             135.729    -29.8565   -26.9829      NaN
  8935 103634.4              148.941             136.049    -29.9414   -27.068      NaN
  8942 103715.6              149.279             136.369    -30.0212   -27.1394      NaN
  8949 103796.8              149.617             136.69    -30.1028   -27.2196      NaN
  8956 103878.0              149.956             137.011    -30.1847   -27.3133      NaN
  8963 103959.2              150.294             137.332    -30.271   -27.3954      NaN
  8970 104040.4              150.633             137.654    -30.3414   -27.4623      NaN
  8977 104121.6              150.973             137.976    -30.4176   -27.5301      NaN
  8984 104202.8              151.311             138.299    -30.4964   -27.6166      NaN
  8991 104284.0              151.649             138.622    -30.5719   -27.6824      NaN
  8998 104365.2              151.987             138.946    -30.6527   -27.7931      NaN
  9005 104446.4              152.326             139.27    -30.7225   -27.8524      NaN
  9012 104527.6              152.663             139.594    -30.7853   -27.9099      NaN
  9019 104608.8              153.001             139.919    -30.846   -27.9711      NaN
  9026 104690.0              153.339             140.243    -30.9304   -28.0555      NaN
  9033 104771.2              153.678             140.568    -30.9983   -28.1335      NaN
  9040 104852.4              154.017             140.894    -31.0678   -28.2061      NaN
  9047 104933.6              154.355             141.219    -31.1354   -28.2704      NaN
  9054 105014.8              154.694             141.545    -31.2043   -28.333      NaN
  9061 105096.0              155.034             141.873    -31.2716   -28.408      NaN
  9068 105177.2              155.373             142.2    -31.3377   -28.4765      NaN
  9075 105258.4              155.712             142.527    -31.3995   -28.5452      NaN
  9082 105339.6              156.05             142.855    -31.4667   -28.6147      NaN
  9089 105420.8              156.389             143.182    -31.5206   -28.6603      NaN
  9096 105502.0              156.726             143.511    -31.5895   -28.7253      NaN
  9103 105583.2              157.064             143.839    -31.6522   -28.7984      NaN
  9110 105664.4              157.403             144.168    -31.7181   -28.8657      NaN
  9117 105745.6              157.74             144.497    -31.7776   -28.9283      NaN
  9124 105826.8              158.078             144.827    -31.8328   -28.9768      NaN
  9131 105908.0              158.416             145.156    -31.8811   -29.039      NaN
  9138 105989.2              158.754             145.486    -31.9212   -29.0739      NaN
  9145 106070.4              159.092             145.816    -31.9638   -29.1228      NaN
  9152 106151.6              159.432             146.146    -31.9882   -29.144      NaN
  9159 106232.8              159.77             146.477    -32.001   -29.1556      NaN
  9166 106314.0              160.109             146.807    -31.9886   -29.1501      NaN
  9173 106395.2              160.448             147.138    -31.961   -29.1253      NaN
  9180 106476.4              160.786             147.469    -31.9007   -29.0765      NaN
  9187 106557.6              161.125             147.801    -31.8079   -28.9757      NaN
  9194 106638.8              161.463             148.132    -31.673   -28.8339      NaN
  9201 106720.0              161.8             148.464    -31.4757   -28.6455      NaN
  9208 106801.2              162.14             148.796    -31.2029   -28.3804      NaN
  9215 106882.4              162.478             149.129    -30.841   -28.0209      NaN
  9222 106963.6              162.817             149.461    -30.3672   -27.55      NaN
  9229 107044.8              163.156             149.793    -29.7615   -26.9576      NaN
  9236 107126.0              163.494             150.125    -28.9859   -26.1875      NaN
  9243 107207.2              163.832             150.458    -28.033   -25.2363      NaN
  9250 107288.4              164.171             150.792    -26.8365   -24.0408      NaN
  9257 107369.6              164.509             151.125    -25.3453   -22.5498      NaN
  9264 107450.8              164.846             151.459    -23.5102   -20.72      NaN
  9271 107532.0              165.185             151.793    -21.2489   -18.4473      NaN
  9278 107613.2              165.523             152.126    -18.4813   -15.6952      NaN
  9285 107694.4              165.861             152.461    -15.0877   -12.3005      NaN
  9292 107775.6              166.2             152.795    -10.9531    -8.181664      NaN
  9299 107856.8              166.537             153.129     -5.898423    -3.137496      NaN
  9306 107938.0              166.876             153.464      0.222137     2.986652      NaN
  9313 108019.2              167.215             153.8      7.597061    10.3664      NaN
  9320 108100.4              167.553             154.135     16.3836    19.1401      NaN
  9327 108181.6              167.892             154.471     26.7202    29.4706      NaN
  9334 108262.8              168.23             154.807     38.6445    41.3983      NaN
  9341 108344.0              168.567             155.143     52.0287    54.7866      NaN
  9348 108425.2              168.906             155.48     66.42    69.1592      NaN
  9355 108506.4              169.245             155.816     80.9633    83.6872      NaN
  9362 108587.6              169.583             156.153     94.2997    97.0227      NaN
  9369 108668.8              169.921             156.49    104.719   107.438      NaN
  9376 108750.0              170.258             156.829    110.435   113.142      NaN
  9383 108831.2              170.595             157.166    110.141   112.846      NaN
  9390 108912.4              170.931             157.504    103.669   106.373      NaN
  9397 108993.6              171.267             157.84     91.9856    94.6794      NaN
  9404 109074.8              171.603             158.177     76.9669    79.6597      NaN
  9411 109156.0              171.94             158.513     60.6503    63.3406      NaN
  9418 109237.2              172.278             158.849     44.7054    47.3857      NaN
  9425 109318.4              172.615             159.184     30.1848    32.8582      NaN
  9432 109399.6              172.952             159.519     17.6679    20.334      NaN
  9439 109480.8              173.29             159.854      7.270848     9.934318      NaN
  9446 109562.0              173.626             160.189     -1.060327     1.606656      NaN
  9453 109643.2              173.964             160.524     -7.637380    -4.980256      NaN
  9460 109724.4              174.301             160.858    -12.6986   -10.0619      NaN
  9467 109805.6              174.636             161.192    -16.5603   -13.9354      NaN
  9474 109886.8              174.97             161.526    -19.4653   -16.842      NaN
  9481 109968.0              175.304             161.859    -21.6483   -19.0158      NaN
  9488 110049.2              175.636             162.192    -23.2753   -20.6593      NaN
  9495 110130.4              175.97             162.524    -24.4741   -21.8623      NaN
  9502 110211.6              176.303             162.857    -25.376   -22.7778      NaN
  9509 110292.8              176.64             163.188    -26.0352   -23.4509      NaN
  9516 110374.0              176.978             163.52    -26.5437   -23.9591      NaN
  9523 110455.2              177.318             163.851    -26.908   -24.3391      NaN
  9530 110536.4              177.66             164.181    -27.1972   -24.6294      NaN
  9537 110617.6              178.005             164.512    -27.4135   -24.8531      NaN
  9544 110698.8              178.349             164.844    -27.5977   -25.0474      NaN
  9551 110780.0              178.697             165.175    -27.7426   -25.1905      NaN
  9558 110861.2              179.041             165.507    -27.8816   -25.3469      NaN
  9565 110942.4              179.386             165.839    -27.9805   -25.4531      NaN
  9572 111023.6              179.729             166.172    -28.1069   -25.5962      NaN
  9579 111104.8              180.073             166.506    -28.2009   -25.6915      NaN
  9586 111186.0              180.416             166.839    -28.3322   -25.8351      NaN
  9593 111267.2              180.758             167.174    -28.4488   -25.9516      NaN
  9600 111348.4              181.1             167.508    -28.5855   -26.1002      NaN
  9607 111429.6              181.439             167.843    -28.7528   -26.2642      NaN
  9614 111510.8              181.78             168.179    -28.9218   -26.4423      NaN
  9621 111592.0              182.121             168.515    -29.1462   -26.6725      NaN
  9628 111673.2              182.46             168.85    -29.4363   -26.9692      NaN
  9635 111754.4              182.798             169.188    -29.8079   -27.3581      NaN
  9642 111835.6              183.137             169.525    -30.3533   -27.9211      NaN
  9649 111916.8              183.475             169.863    -31.1732   -28.7193      NaN
  9656 111998.0              183.812             170.201    -32.4483   -29.9956      NaN
  9663 112079.2              184.15             170.54    -34.4055   -31.9678      NaN
  9670 112160.4              184.488             170.877    -37.5409   -35.1275      NaN
  9677 112241.6              184.826             171.217    -42.4206   -40.0017      NaN
  9684 112322.8              185.164             171.554    -46.8008   -44.3997      NaN
  9691 112404.0              185.502             171.894    -47.8001   -45.3999      NaN
  9698 112485.2              185.839             172.232    -34.1745   -31.7811      NaN
  9705 112566.4              186.177             172.573    -16.2369   -13.868      NaN
  9712 112647.6              186.514             172.914    -17.6815   -15.3106      NaN
  9719 112728.8              186.852             173.253    -21.262   -18.8787      NaN
  9726 112810.0              187.19             173.594    -23.966   -21.5886      NaN
  9733 112891.2              187.527             173.935    -25.9358   -23.5811      NaN
  9740 112972.4              187.866             174.275    -25.9379   -23.5852      NaN
  9747 113053.6              188.205             174.616    -27.4886   -25.1515      NaN
  9754 113134.8              188.543             174.957    -28.7358   -26.4228      NaN
  9761 113216.0              188.881             175.298    -29.8973   -27.6049 0.695713
  9768 113297.2              189.218             175.64    -31.2028   -28.9198 0.695151
  9775 113378.4              189.556             175.981    -33.2305   -30.9593 0.694588
  9782 113459.6              189.895             176.323    -37.5519   -35.2987 0.694022
  9789 113540.8              190.232             176.665    -49.0972   -46.8494 0.693453
  9796 113622.0              190.569             177.006    -74.7913   -72.5637 0.692886
  9803 113703.2              190.906             177.347   -110.686  -108.444 0.692315
  9810 113784.4              191.244             177.687   -152.94  -150.705 0.691744
  9817 113865.6              191.582             178.025   -193.939  -191.735 0.691173
  9824 113946.8              191.919             178.365   -229.51  -227.317 0.690598
  9831 114028.0              192.257             178.703   -257.808  -255.62 0.690024
  9838 114109.2              192.595             179.043   -280.059  -277.88 0.689446
  9845 114190.4              192.932             179.381   -302.769  -300.581 0.688866
  9852 114271.6              193.27             179.719   -314.585  -312.4 0.688286
  9859 114352.8              193.607             180.057   -292.621  -290.473 0.687702
  9866 114434.0              193.945             180.397   -226.906  -224.78 0.687113
  9873 114515.2              194.285             180.739   -175.094  -172.963 0.686519
  9880 114596.4              194.624             181.08   -138.328  -136.206 0.685923
  9887 114677.6              194.963             181.424   -111.991  -109.873 0.685321
  9894 114758.8              195.303             181.767    -92.9819   -90.8981 0.684716
  9901 114840.0              195.643             182.111    -79.215   -77.1394 0.684107
  9908 114921.2              195.982             182.455    -69.2281   -67.1614 0.683497
  9915 115002.4              196.32             182.798    -61.9725   -59.8986 0.682884
  9922 115083.6              196.659             183.143    -56.7213   -54.6407 0.682266
  9929 115164.8              196.997             183.486    -52.9278   -50.8627 0.681648
  9936 115246.0              197.336             183.831    -50.1785   -48.1439 0.681025
  9943 115327.2              197.673             184.175    -48.2132   -46.1839 0.680399
  9950 115408.4              198.012             184.52    -46.812   -44.7771 0.679770
  9957 115489.6              198.35             184.864    -45.8209   -43.7846 0.679138
  9964 115570.8              198.689             185.21    -45.1324   -43.1394 0.678501
  9971 115652.0              199.027             185.554    -44.6371   -42.6497 0.677863
  9978 115733.2              199.365             185.899    -44.3121   -42.3461 0.677222
  9985 115814.4              199.702             186.244    -44.1087   -42.1281 0.676576
  9992 115895.6              200.039             186.588    -44.002   -42.0571 0.675929
  9999 115976.8              200.377             186.933    -43.943   -42.009 0.675278
 10006 116058.0              200.716             187.278    -43.9247   -42.0377 0.674622
 10013 116139.2              201.053             187.623    -43.947   -42.05 0.673965
 10020 116220.4              201.39             187.968    -43.9954   -42.0593 0.673303
 10027 116301.6              201.727             188.312    -44.0576   -42.0975 0.672638
 10034 116382.8              202.065             188.658    -44.1297   -42.1415 0.671968
 10041 116464.0              202.403             189.002    -44.2161   -42.2731 0.671297
 10048 116545.2              202.74             189.346    -44.3099   -42.4383 0.670622
 10055 116626.4              203.079             189.691    -44.3941   -42.4965 0.669943
 10062 116707.6              203.418             190.035    -44.4903   -42.5698 0.669261
 10069 116788.8              203.756             190.38    -44.583   -42.6595 0.668573
 10076 116870.0              204.095             190.724    -44.7062   -42.7595 0.667884
 10083 116951.2              204.435             191.069    -44.8247   -42.9185 0.667188
 10090 117032.4              204.774             191.415    -44.9533   -43.098 0.666488
 10097 117113.6              205.112             191.759    -45.0688   -43.2521 0.665786
 10104 117194.8              205.451             192.104    -45.1937   -43.4498 0.665079
 10111 117276.0              205.788             192.449    -45.3199   -43.588 0.664367
 10118 117357.2              206.125             192.794    -45.4404   -43.6871 0.663652
 10125 117438.4              206.462             193.138    -45.5589   -43.7962 0.662934
 10132 117519.6              206.798             193.484    -45.6679   -43.9144 0.662208
 10139 117600.8              207.135             193.828    -45.7732   -44.0392 0.661482
 10146 117682.0              207.472             194.172    -45.8882   -44.1689 0.660749
 10153 117763.2              207.81             194.517    -46.0301   -44.271 0.660013
 10160 117844.4              208.149             194.862    -46.1459   -44.3476 0.659271
 10167 117925.6              208.487             195.206    -46.288   -44.4851 0.658526
 10174 118006.8              208.827             195.55    -46.4128   -44.6204 0.657774
 10181 118088.0              209.166             195.894    -46.5446   -44.7714 0.657020
 10188 118169.2              209.506             196.239    -46.6723   -44.9518 0.656260
 10195 118250.4              209.846             196.583    -46.7934   -45.1318 0.655495
 10202 118331.6              210.186             196.927    -46.9251   -45.2704 0.654725
 10209 118412.8              210.526             197.273    -47.0443   -45.4068 0.653947
 10216 118494.0              210.865             197.618    -47.1961   -45.616 0.653166
 10223 118575.2              211.203             197.963    -47.3666   -45.8319 0.652379
 10230 118656.4              211.541             198.308    -47.5169   -45.9309 0.651587
 10237 118737.6              211.878             198.652    -47.6665   -45.9824 0.650789
 10244 118818.8              212.215             198.997    -47.8163   -46.0978 0.649986
 10251 118900.0              212.553             199.341    -47.9674   -46.3066 0.649180
 10258 118981.2              212.891             199.686    -48.0997   -46.4436 0.648364
 10265 119062.4              213.228             200.031    -48.2379   -46.5661 0.647545
 10272 119143.6              213.565             200.375    -48.4067   -46.7422 0.646721
 10279 119224.8              213.905             200.72    -48.5302   -46.8228 0.645889
 10286 119306.0              214.244             201.065    -48.6966   -47.0214 0.645049
 10293 119387.2              214.585             201.41    -48.8503   -47.1955 0.644206
 10300 119468.4              214.925             201.755    -49.01   -47.3445 0.643355
 10307 119549.6              215.264             202.099    -49.1272   -47.4428 0.642499
 10314 119630.8              215.604             202.444    -49.3014   -47.5651 0.641635
 10321 119712.0              215.942             202.789    -49.4765   -47.8431 0.640765
 10328 119793.2              216.281             203.134    -49.669   -48.0341 0.639889
 10335 119874.4              216.618             203.479    -49.835   -48.2591 0.639005
 10342 119955.6              216.955             203.824    -49.9902   -48.3738 0.638113
 10349 120036.8              217.293             204.169    -50.136   -48.5705 0.637215
 10356 120118.0              217.631             204.515    -50.3261   -48.7916 0.636309
 10363 120199.2              217.969             204.86    -50.5235   -49.0667 0.635397
 10370 120280.4              218.308             205.205    -50.7127   -49.2936 0.634477
 10377 120361.6              218.646             205.549    -50.9056   -49.5186 0.633552
 10384 120442.8              218.983             205.895    -51.0999   -49.8196 0.632617
 10391 120524.0              219.322             206.24    -51.2877   -50.0393 0.631675
 10398 120605.2              219.658             206.584    -51.4724   -50.1708 0.630725
 10405 120686.4              219.996             206.929    -51.6137   -50.2684 0.629769
 10412 120767.6              220.334             207.275    -51.8338   -50.4627 0.628800
 10419 120848.8              220.672             207.619    -52.0413   -50.6461 0.627827
 10426 120930.0              221.009             207.964    -52.2415   -50.7852 0.626844
 10433 121011.2              221.348             208.309    -52.4614   -51.0237 0.625853
 10440 121092.4              221.687             208.654    -52.6528   -51.1708 0.624855
 10447 121173.6              222.026             208.999    -52.8307   -51.3684 0.623846
 10454 121254.8              222.366             209.344    -53.0483   -51.5487 0.622828
 10461 121336.0              222.704             209.689    -53.2737   -51.7117 0.621800
 10468 121417.2              223.041             210.033    -53.4843   -51.9004 0.620766
 10475 121498.4              223.379             210.379    -53.7022   -52.161 0.619718
 10482 121579.6              223.717             210.724    -53.9405   -52.4496 0.618664
 10489 121660.8              224.054             211.069    -54.1511   -52.6685 0.617598
 10496 121742.0              224.392             211.414    -54.326   -52.91 0.616523
 10503 121823.2              224.731             211.758    -54.5539   -53.147 0.615439
 10510 121904.4              225.07             212.102    -54.7958   -53.4716 0.614345
 10517 121985.6              225.409             212.448    -55.0276   -53.7285 0.613238
 10524 122066.8              225.749             212.792    -55.2638   -53.9152 0.612123
 10531 122148.0              226.087             213.137    -55.5205   -54.0295 0.610997
 10538 122229.2              226.426             213.482    -55.7741   -54.2607 0.609857
 10545 122310.4              226.765             213.827    -56.0069   -54.4585 0.608704
 10552 122391.6              227.105             214.171    -56.227   -54.6825 0.607546
 10559 122472.8              227.442             214.516    -56.467   -55.0837 0.606373
 10566 122554.0              227.78             214.862    -56.7281   -55.4562 0.605184
 10573 122635.2              228.116             215.207    -57.0005   -55.7645 0.603986
 10580 122716.4              228.453             215.551    -57.2591   -56.0479 0.602777
 10587 122797.6              228.792             215.896    -57.5063   -56.3706 0.601554
 10594 122878.8              229.129             216.241    -57.7788   -56.5913 0.600320
 10601 122960.0              229.468             216.586    -58.0354   -56.8416 0.599069
 10608 123041.2              229.806             216.93    -58.2944   -57.106 0.597808
 10615 123122.4              230.145             217.275    -58.5616   -57.2695 0.596532
 10622 123203.6              230.484             217.62    -58.8535   -57.576 0.595243
 10629 123284.8              230.823             217.965    -59.1589   -57.8762 0.593937
 10636 123366.0              231.162             218.309    -59.4445   -58.1603 0.592620
 10643 123447.2              231.501             218.654    -59.754   -58.5262 0.591285
 10650 123528.4              231.84             218.998    -60.0667   -58.8655 0.589937
 10657 123609.6              232.178             219.343    -60.4252   -59.2315 0.588573
 10664 123690.8              232.516             219.689    -60.7599   -59.6542 0.587189
 10671 123772.0              232.853             220.033    -61.0433   -59.9746 0.585795
 10678 123853.2              233.19             220.378    -61.3832   -60.2648 0.584381
 10685 123934.4              233.528             220.723    -61.6979   -60.5894 0.582950
 10692 124015.6              233.866             221.067    -62.0412   -60.9562 0.581505
 10699 124096.8              234.205             221.412    -62.4019   -61.3101 0.580040
 10706 124178.0              234.546             221.757    -62.7841   -61.6697 0.578558
 10713 124259.2              234.884             222.102    -63.1542   -62.2204 0.577056
 10720 124340.4              235.224             222.446    -63.4879   -62.5133 0.575537
 10727 124421.6              235.563             222.791    -63.845   -62.8835 0.573998
 10734 124502.8              235.901             223.136    -64.2324   -63.2825 0.572437
 10741 124584.0              236.241             223.482    -64.5593   -63.6617 0.570855
 10748 124665.2              236.58             223.826    -64.9724   -64.0562 0.569258
 10755 124746.4              236.919             224.171    -65.3751   -64.4665 0.567638
 10762 124827.6              237.256             224.516    -65.8055   -64.8899 0.565993
 10769 124908.8              237.595             224.861    -66.1836   -65.2525 0.564329
 10776 124990.0              237.931             225.206    -66.5717   -65.7053 0.562641
 10783 125071.2              238.268             225.551    -67.0156   -66.197 0.560933
 10790 125152.4              238.606             225.896    -67.4902   -66.6227 0.559198
 10797 125233.6              238.943             226.241    -67.9557   -67.0264 0.557442
 10804 125314.8              239.282             226.587    -68.4165   -67.4474 0.555655
 10811 125396.0              239.62             226.931    -68.7821   -67.9262 0.553848
 10818 125477.2              239.959             227.276    -69.2503   -68.4451 0.552017
 10825 125558.4              240.296             227.621    -69.7515   -68.9442 0.550158
 10832 125639.6              240.634             227.965    -70.2173   -69.4461 0.548273
 10839 125720.8              240.972             228.31    -70.7163   -69.8493 0.546360
 10846 125802.0              241.31             228.655    -71.233   -70.2976 0.544417
 10853 125883.2              241.649             228.999    -71.7555   -70.7217 0.542447
 10860 125964.4              241.986             229.343    -72.2622   -71.2301 0.540447
 10867 126045.6              242.325             229.688    -72.7683   -71.7569 0.538414
 10874 126126.8              242.664             230.032    -73.303   -72.2922 0.536353
 10881 126208.0              243.002             230.378    -73.8173   -72.751 0.534253
 10888 126289.2              243.342             230.722    -74.3456   -73.3211 0.532127
 10895 126370.4              243.68             231.067    -74.8664   -73.967 0.529962
 10902 126451.6              244.018             231.411    -75.4592   -74.5778 0.527765
 10909 126532.8              244.356             231.756    -76.0695   -75.1411 0.525532
 10916 126614.0              244.695             232.1    -76.6912   -75.7656 0.523264
 10923 126695.2              245.034             232.445    -77.3313   -76.3906 0.520954
 10930 126776.4              245.373             232.79    -77.9828   -77.0874 0.518604
 10937 126857.6              245.711             233.134    -78.6876   -77.7507 0.516215
 10944 126938.8              246.049             233.479    -79.3948   -78.4816 0.513787
 10951 127020.0              246.386             233.823    -80.0844   -79.2151 0.511318
 10958 127101.2              246.724             234.167    -80.7938   -80.0424 0.508807
 10965 127182.4              247.062             234.512    -81.5014   -80.7532 0.506249
 10972 127263.6              247.401             234.857    -82.2006   -81.4239 0.503640
 10979 127344.8              247.741             235.201    -82.9139   -82.1725 0.500990
 10986 127426.0              248.08             235.546    -83.6811   -82.9844 0.498283
 10993 127507.2              248.418             235.892    -84.4363   -83.7849 0.495526
 11000 127588.4              248.755             236.236    -85.2211   -84.53 0.492720
 11007 127669.6              249.094             236.581    -86.0512   -85.3287 0.489864
 11014 127750.8              249.432             236.926    -86.9143   -86.1177 0.486947
 11021 127832.0              249.771             237.27    -87.8045   -86.895 0.483979
 11028 127913.2              250.111             237.615    -88.6805   -87.7703 0.480951
 11035 127994.4              250.449             237.959    -89.5614   -88.5723 0.477871
 11042 128075.6              250.788             238.304    -90.4524   -89.643 0.474715
 11049 128156.8              251.127             238.649    -91.4043   -90.5917 0.471497
 11056 128238.0              251.466             238.994    -92.3899   -91.5647 0.468215
 11063 128319.2              251.804             239.339    -93.444   -92.725 0.464869
 11070 128400.4              252.141             239.684    -94.5132   -93.919 0.461446
 11077 128481.6              252.48             240.028    -95.5922   -94.9161 0.457958
 11084 128562.8              252.819             240.373    -96.6241   -95.9903 0.454384
 11091 128644.0              253.156             240.718    -97.6566   -97.1546 0.450741
 11098 128725.2              253.496             241.062    -98.7824   -98.4158 0.447018
 11105 128806.4              253.836             241.407    -99.9242   -99.6818 0.443213
 11112 128887.6              254.174             241.752   -101.152  -100.921 0.439311
 11119 128968.8              254.512             242.096   -102.338  -102.05 0.435336
 11126 129050.0              254.85             242.442   -103.599  -103.187 0.431257
 11133 129131.2              255.189             242.786   -104.896  -104.336 0.427086
 11140 129212.4              255.527             243.131   -106.241  -105.687 0.422826
 11147 129293.6              255.864             243.476   -107.621  -107.039 0.418443
 11154 129374.8              256.2             243.821   -109.064  -108.435 0.413974
 11161 129456.0              256.537             244.165   -110.537  -109.915 0.409392
 11168 129537.2              256.876             244.51   -112.015  -111.386 0.404696
 11175 129618.4              257.214             244.855   -113.527  -113.046 0.399884
 11182 129699.6              257.551             245.199   -115.091  -114.783 0.394949
 11189 129780.8              257.89             245.544   -116.692  -116.512 0.389891
 11196 129862.0              258.229             245.889   -118.335  -118.076 0.384700
 11203 129943.2              258.568             246.233   -120.005  -119.73 0.379384
 11210 130024.4              258.908             246.577   -121.759  -121.346 0.373924
 11217 130105.6              259.247             246.922   -123.534  -123.126 0.368304
 11224 130186.8              259.586             247.266   -125.385  -125.176 0.362545
 11231 130268.0              259.924             247.611   -127.281  -127.111 0.356617
 11238 130349.2              260.263             247.956   -129.231  -128.998 0.350534
 11245 130430.4              260.601             248.301   -131.261  -131.129 0.344279
 11252 130511.6              260.94             248.645   -133.339  -133.108 0.337847
 11259 130592.8              261.279             248.99   -135.499  -135.235 0.331221
 11266 130674.0              261.615             249.334   -137.712  -137.566 0.324421
 11273 130755.2              261.953             249.679   -140.023  -139.788 0.317422
 11280 130836.4              262.292             250.022   -142.373  -142.141 0.310223
 11287 130917.6              262.63             250.367   -144.775  -144.603 0.302783
 11294 130998.8              262.967             250.711   -147.239  -147.154 0.295145
 11301 131080.0              263.305             251.056   -149.791  -149.851 0.287242
 11308 131161.2              263.641             251.401   -152.44  -152.481 0.279110
 11315 131242.4              263.979             251.745   -155.151  -155.065 0.270727
 11322 131323.6              264.318             252.089   -157.933  -157.701 0.262061
 11329 131404.8              264.656             252.433   -160.764  -160.585 0.253136
 11336 131486.0              264.995             252.777   -163.685  -163.522 0.243931
 11343 131567.2              265.333             253.121   -166.667  -166.525 0.234409
 11350 131648.4              265.673             253.466   -169.709  -169.509 0.224537
 11357 131729.6              266.011             253.809   -172.784  -172.588 0.214382
 11364 131810.8              266.351             254.154   -175.92  -175.752 0.203834
 11371 131892.0              266.689             254.498   -179.088  -178.802 0.192935
 11378 131973.2              267.027             254.842   -182.287  -182.048 0.181649
 11385 132054.4              267.365             255.186   -185.536  -185.527 0.169970
 11392 132135.6              267.705             255.53   -188.836  -188.838 0.157852
 11399 132216.8              268.043             255.874   -192.133  -192.096 0.145306
 11406 132298.0              268.382             256.218   -195.467  -195.521 0.132266
 11413 132379.2              268.721             256.562   -198.841  -198.936 0.118755
 11420 132460.4              269.06             256.905   -202.216  -202.239 0.104716
 11427 132541.6              269.397             257.25   -205.634  -205.784 0.090094
 11434 132622.8              269.735             257.594   -209.062  -209.304 0.074882
 11441 132704.0              270.074             257.938   -212.66  -213.03 0.059085
 11448 132785.2              270.411             258.282   -216.311  -216.534 0.042619
 11455 132866.4              270.749             258.626   -219.731  -219.838 0.025473
 11462 132947.6              271.088             258.97   -222.689  -222.791 0.007557
 11469 133028.8              271.426             259.314   -224.65  -224.862      NaN
 11476 133110.0              271.765             259.657   -225.446  -225.798      NaN
 11483 133191.2              272.104             260.001   -223.494  -223.834      NaN
 11490 133272.4              272.442             260.345   -219.092  -219.455      NaN
 11497 133353.6              272.78             260.69   -214.586  -215.011      NaN
 11504 133434.8              273.117             261.033   -212.858  -213.363      NaN
 11511 133516.0              273.456             261.379   -209.457  -210.229      NaN
 11518 133597.2              273.794             261.723   -203.424  -204.305      NaN
 11525 133678.4              274.133             262.066   -195.787  -196.721      NaN
 11532 133759.6              274.472             262.411   -188.802  -189.757      NaN
 11539 133840.8              274.81             262.756   -182.586  -183.446      NaN
 11546 133922.0              275.148             263.101   -178.761  -179.66      NaN
 11553 134003.2              275.487             263.445   -178.143  -179.152      NaN
 11560 134084.4              275.823             263.79   -170.936  -171.597      NaN
 11567 134165.6              276.163             264.134   -152.045  -152.831      NaN
 11574 134246.8              276.501             264.48   -134.939  -135.963      NaN
 11581 134328.0              276.838             264.826   -122.053  -123.077      NaN
 11588 134409.2              277.175             265.17   -112.122  -112.98      NaN
 11595 134490.4              277.514             265.517   -104.451  -105.263      NaN
 11602 134571.6              277.851             265.862    -98.5505   -99.3128      NaN
 11609 134652.8              278.189             266.207    -94.0019   -94.8931      NaN
 11616 134734.0              278.528             266.553    -90.5059   -91.2804      NaN
 11623 134815.2              278.867             266.899    -87.8143   -88.6946      NaN
 11630 134896.4              279.205             267.244    -85.7587   -86.6763      NaN
 11637 134977.6              279.543             267.589    -84.1701   -85      NaN
 11644 135058.8              279.882             267.935    -82.964   -83.7721      NaN
 11651 135140.0              280.22             268.281    -82.0413   -82.7205      NaN
 11658 135221.2              280.558             268.625    -81.3339   -81.9667      NaN
 11665 135302.4              280.898             268.971    -80.8018   -81.3935      NaN
 11672 135383.6              281.237             269.316    -80.4053   -80.9752      NaN
 11679 135464.8              281.575             269.662    -80.1028   -80.674      NaN
 11686 135546.0              281.914             270.006    -79.8797   -80.7095      NaN
 11693 135627.2              282.252             270.352    -79.7171   -80.5415      NaN
 11700 135708.4              282.592             270.697    -79.6011   -80.2078      NaN
 11707 135789.6              282.93             271.043    -79.5128   -80.025      NaN
 11714 135870.8              283.269             271.388    -79.4293   -80.122      NaN
 11721 135952.0              283.607             271.734    -79.3792   -80.0983      NaN
 11728 136033.2              283.944             272.078    -79.3514   -80.0851      NaN
 11735 136114.4              284.283             272.423    -79.3326   -80.1656      NaN
 11742 136195.6              284.622             272.769    -79.3446   -80.4627      NaN
 11749 136276.8              284.961             273.114    -79.3614   -80.4737      NaN
 11756 136358.0              285.299             273.459    -79.3848   -80.4069      NaN
 11763 136439.2              285.637             273.804    -79.3942   -80.3634      NaN
 11770 136520.4              285.976             274.149    -79.4708   -80.2907      NaN
 11777 136601.6              286.314             274.494    -79.4976   -80.2253      NaN
 11784 136682.8              286.653             274.84    -79.4833   -80.1281      NaN
 11791 136764.0              286.99             275.185    -79.4854   -80.1445      NaN
 11798 136845.2              287.33             275.529    -79.4877   -80.0577      NaN
 11805 136926.4              287.667             275.875    -79.495   -80.1878      NaN
 11812 137007.6              288.005             276.22    -79.5179   -80.573      NaN
 11819 137088.8              288.343             276.564    -79.535   -80.6296      NaN
 11826 137170.0              288.681             276.909    -79.5509   -80.5593      NaN
 11833 137251.2              289.019             277.254    -79.5615   -80.5351      NaN
 11840 137332.4              289.356             277.599    -79.5687   -80.4727      NaN
 11847 137413.6              289.696             277.944    -79.5844   -80.3597      NaN
 11854 137494.8              290.034             278.288    -79.5924   -80.5578      NaN
 11861 137576.0              290.373             278.633    -79.6039   -80.8819      NaN
 11868 137657.2              290.712             278.978    -79.599   -80.6434      NaN
 11875 137738.4              291.051             279.322    -79.5873   -80.5989      NaN
 11882 137819.6              291.389             279.666    -79.5717   -80.6938      NaN
 11889 137900.8              291.726             280.012    -79.5557   -80.5763      NaN
 11896 137982.0              292.066             280.357    -79.5467   -80.5549      NaN
 11903 138063.2              292.403             280.701    -79.5504   -80.5809      NaN
 11910 138144.4              292.742             281.046    -79.5506   -80.6452      NaN
 11917 138225.6              293.08             281.39    -79.5711   -80.6296      NaN
 11924 138306.8              293.417             281.735    -79.579   -80.7134      NaN
 11931 138388.0              293.756             282.079    -79.5967   -80.7628      NaN
 11938 138469.2              294.092             282.423    -79.612   -80.6636      NaN
 11945 138550.4              294.429             282.767    -79.6286   -80.8111      NaN
 11952 138631.6              294.767             283.112    -79.6525   -81.1144      NaN
 11959 138712.8              295.104             283.456    -79.6706   -81.1283      NaN
 11966 138794.0              295.443             283.801    -79.6908   -81.161      NaN
 11973 138875.2              295.782             284.145    -79.707   -81.0686      NaN
 11980 138956.4              296.122             284.488    -79.7228   -81.16      NaN
 11987 139037.6              296.46             284.833    -79.733   -81.0482      NaN
 11994 139118.8              296.798             285.177    -79.7415   -81.1745      NaN
 12001 139200.0              297.137             285.52    -79.7597   -81.1111      NaN
 12008 139281.2              297.477             285.864    -79.7725   -80.9637      NaN
 12015 139362.4              297.816             286.208    -79.7883   -81.1178      NaN
 12022 139443.6              298.154             286.551    -79.8114   -81.1637      NaN
 12029 139524.8              298.492             286.895    -79.8276   -81.1931      NaN
 12036 139606.0              298.828             287.239    -79.8571   -81.2278      NaN
 12043 139687.2              299.166             287.583    -79.8686   -81.2001      NaN
 12050 139768.4              299.32             287.925    -79.8862   -81.3135      NaN
 12057 139849.6              299.318             288.259    -79.8727   -81.3776      NaN
 12064 139930.8              299.298             288.584    -79.7573   -81.2334      NaN
 12071 140012.0              299.275             288.897    -79.4622   -80.8728      NaN
 12078 140093.2              299.252             289.201    -78.9358   -80.2966      NaN
 12085 140174.4              299.232             289.495    -78.166   -79.4529      NaN
 12092 140255.6              299.215             289.778    -77.1533   -78.3591      NaN
 12099 140336.8              299.204             290.052    -75.921   -77.4714      NaN
 12100 140348.4              299.203             290.091    -75.729   -77.2909      NaN