File: z_unorganized_archive/archive/0.25Kmin_wrong_wt%/data/3.52wt%_climb_proc.txt
 Index  Time(s)  Furnace Temperature(K)  Sample Temperature(K)  HeatFlow(mW)  Q_Corrected       Fc
  8501  98600.0              127.963             116.218    -20.6978   -18.2198      NaN
  8508  98681.2              128.302             116.518    -20.8243   -18.3158      NaN
  8515  98762.4              128.64             116.816    -20.9401   -18.4211      NaN
  8522  98843.6              128.979             117.116    -21.0789   -18.5443      NaN
  8529  98924.8              129.316             117.417    -21.1976   -18.6491      NaN
  8536  99006.0              129.653             117.72    -21.3588   -18.8026      NaN
  8543  99087.2              129.99             118.022    -21.4754   -18.896      NaN
  8550  99168.4              130.327             118.325    -21.6295   -19.038      NaN
  8557  99249.6              130.666             118.629    -21.771   -19.1647      NaN
  8564  99330.8              131.006             118.935    -21.9274   -19.3147      NaN
  8571  99412.0              131.346             119.239    -22.0989   -19.478      NaN
  8578  99493.2              131.686             119.546    -22.2523   -19.6172      NaN
  8585  99574.4              132.025             119.853    -22.4421   -19.7885      NaN
  8592  99655.6              132.363             120.161    -22.6373   -19.9729      NaN
  8599  99736.8              132.7             120.469    -22.8451   -20.1646      NaN
  8606  99818.0              133.036             120.778    -23.0636   -20.3907      NaN
  8613  99899.2              133.372             121.088    -23.3142   -20.6243      NaN
  8620  99980.4              133.708             121.398    -23.5494   -20.8508      NaN
  8627 100061.6              134.044             121.708    -23.8077   -21.1      NaN
  8634 100142.8              134.381             122.02    -24.0824   -21.3501      NaN
  8641 100224.0              134.72             122.331    -24.3327   -21.6087      NaN
  8648 100305.2              135.059             122.642    -24.5974   -21.868      NaN
  8655 100386.4              135.4             122.954    -24.8175   -22.0729      NaN
  8662 100467.6              135.741             123.268    -25.0146   -22.2563      NaN
  8669 100548.8              136.081             123.582    -25.1141   -22.3615      NaN
  8676 100630.0              136.421             123.896    -25.1962   -22.4288      NaN
  8683 100711.2              136.763             124.211    -25.2328   -22.4535      NaN
  8690 100792.4              137.104             124.527    -25.2122   -22.43      NaN
  8697 100873.6              137.443             124.843    -25.2053   -22.4096      NaN
  8704 100954.8              137.78             125.159    -25.19   -22.3987      NaN
  8711 101036.0              138.117             125.476    -25.2185   -22.4211      NaN
  8718 101117.2              138.452             125.793    -25.236   -22.4238      NaN
  8725 101198.4              138.787             126.111    -25.2817   -22.4703      NaN
  8732 101279.6              139.123             126.429    -25.323   -22.5067      NaN
  8739 101360.8              139.46             126.747    -25.3739   -22.5571      NaN
  8746 101442.0              139.798             127.066    -25.4279   -22.6048      NaN
  8753 101523.2              140.136             127.385    -25.4881   -22.656      NaN
  8760 101604.4              140.475             127.704    -25.5678   -22.7339      NaN
  8767 101685.6              140.816             128.024    -25.6279   -22.7842      NaN
  8774 101766.8              141.156             128.344    -25.7066   -22.8688      NaN
  8781 101848.0              141.497             128.665    -25.763   -22.9319      NaN
  8788 101929.2              141.838             128.985    -25.833   -22.9826      NaN
  8795 102010.4              142.177             129.307    -25.9276   -23.0648      NaN
  8802 102091.6              142.518             129.629    -25.9871   -23.1302      NaN
  8809 102172.8              142.859             129.952    -26.0765   -23.2274      NaN
  8816 102254.0              143.196             130.275    -26.133   -23.2868      NaN
  8823 102335.2              143.533             130.598    -26.2178   -23.3547      NaN
  8830 102416.4              143.868             130.921    -26.2833   -23.4131      NaN
  8837 102497.6              144.204             131.245    -26.367   -23.505      NaN
  8844 102578.8              144.539             131.568    -26.4214   -23.5486      NaN
  8851 102660.0              144.876             131.892    -26.4934   -23.6229      NaN
  8858 102741.2              145.213             132.215    -26.5549   -23.6885      NaN
  8865 102822.4              145.551             132.54    -26.6175   -23.7432      NaN
  8872 102903.6              145.891             132.865    -26.6843   -23.8054      NaN
  8879 102984.8              146.231             133.19    -26.7398   -23.8577      NaN
  8886 103066.0              146.571             133.516    -26.8169   -23.9494      NaN
  8893 103147.2              146.911             133.841    -26.8687   -23.9969      NaN
  8900 103228.4              147.251             134.167    -26.9456   -24.0612      NaN
  8907 103309.6              147.591             134.493    -27.0037   -24.1138      NaN
  8914 103390.8              147.929             134.82    -27.0757   -24.1966      NaN
  8921 103472.0              148.267             135.146    -27.1309   -24.2517      NaN
  8928 103553.2              148.603             135.473    -27.1975   -24.3239      NaN
  8935 103634.4              148.941             135.802    -27.2565   -24.3831      NaN
  8942 103715.6              149.279             136.128    -27.3174   -24.4355      NaN
  8949 103796.8              149.618             136.456    -27.3744   -24.4912      NaN
  8956 103878.0              149.958             136.784    -27.4408   -24.5693      NaN
  8963 103959.2              150.297             137.113    -27.4959   -24.6203      NaN
  8970 104040.4              150.638             137.441    -27.5634   -24.6843      NaN
  8977 104121.6              150.976             137.769    -27.6191   -24.7316      NaN
  8984 104202.8              151.315             138.099    -27.6768   -24.797      NaN
  8991 104284.0              151.652             138.428    -27.7344   -24.845      NaN
  8998 104365.2              151.988             138.759    -27.805   -24.9453      NaN
  9005 104446.4              152.324             139.088    -27.8746   -25.0045      NaN
  9012 104527.6              152.659             139.418    -27.9166   -25.0413      NaN
  9019 104608.8              152.997             139.748    -27.9865   -25.1116      NaN
  9026 104690.0              153.336             140.077    -28.038   -25.163      NaN
  9033 104771.2              153.675             140.408    -28.1023   -25.2376      NaN
  9040 104852.4              154.014             140.738    -28.1432   -25.2815      NaN
  9047 104933.6              154.353             141.068    -28.2118   -25.3468      NaN
  9054 105014.8              154.692             141.399    -28.254   -25.3828      NaN
  9061 105096.0              155.033             141.73    -28.3197   -25.456      NaN
  9068 105177.2              155.373             142.062    -28.3684   -25.5072      NaN
  9075 105258.4              155.712             142.394    -28.4349   -25.5807      NaN
  9082 105339.6              156.05             142.726    -28.4857   -25.6336      NaN
  9089 105420.8              156.389             143.057    -28.5568   -25.6965      NaN
  9096 105502.0              156.725             143.389    -28.6024   -25.7382      NaN
  9103 105583.2              157.064             143.722    -28.6622   -25.8084      NaN
  9110 105664.4              157.403             144.055    -28.7146   -25.8621      NaN
  9117 105745.6              157.743             144.387    -28.785   -25.9356      NaN
  9124 105826.8              158.082             144.72    -28.8349   -25.9789      NaN
  9131 105908.0              158.421             145.053    -28.9019   -26.0598      NaN
  9138 105989.2              158.759             145.386    -28.9372   -26.0899      NaN
  9145 106070.4              159.097             145.719    -28.998   -26.157      NaN
  9152 106151.6              159.434             146.053    -29.0581   -26.2139      NaN
  9159 106232.8              159.77             146.387    -29.1123   -26.2669      NaN
  9166 106314.0              160.105             146.721    -29.1594   -26.321      NaN
  9173 106395.2              160.442             147.054    -29.2013   -26.3656      NaN
  9180 106476.4              160.78             147.388    -29.2433   -26.4191      NaN
  9187 106557.6              161.118             147.722    -29.2641   -26.432      NaN
  9194 106638.8              161.457             148.057    -29.2925   -26.4535      NaN
  9201 106720.0              161.797             148.391    -29.302   -26.4719      NaN
  9208 106801.2              162.136             148.725    -29.3257   -26.5031      NaN
  9215 106882.4              162.476             149.059    -29.3188   -26.4987      NaN
  9222 106963.6              162.816             149.394    -29.3109   -26.4937      NaN
  9229 107044.8              163.156             149.729    -29.2656   -26.4616      NaN
  9236 107126.0              163.493             150.064    -29.2245   -26.4261      NaN
  9243 107207.2              163.832             150.398    -29.1442   -26.3474      NaN
  9250 107288.4              164.168             150.734    -29.0459   -26.2502      NaN
  9257 107369.6              164.506             151.069    -28.9052   -26.1097      NaN
  9264 107450.8              164.843             151.404    -28.745   -25.9547      NaN
  9271 107532.0              165.184             151.74    -28.5305   -25.7289      NaN
  9278 107613.2              165.521             152.076    -28.2911   -25.505      NaN
  9285 107694.4              165.86             152.411    -27.9946   -25.2073      NaN
  9292 107775.6              166.198             152.747    -27.6627   -24.8913      NaN
  9299 107856.8              166.534             153.083    -27.2748   -24.5139      NaN
  9306 107938.0              166.872             153.418    -26.8349   -24.0704      NaN
  9313 108019.2              167.21             153.755    -26.3373   -23.568      NaN
  9320 108100.4              167.549             154.091    -25.7596   -23.0031      NaN
  9327 108181.6              167.888             154.427    -25.1135   -22.3631      NaN
  9334 108262.8              168.229             154.764    -24.3778   -21.624      NaN
  9341 108344.0              168.566             155.099    -23.5548   -20.7969      NaN
  9348 108425.2              168.905             155.436    -22.5899   -19.8507      NaN
  9355 108506.4              169.243             155.773    -21.4973   -18.7733      NaN
  9362 108587.6              169.58             156.109    -20.2339   -17.5109      NaN
  9369 108668.8              169.919             156.446    -18.8031   -16.0848      NaN
  9376 108750.0              170.258             156.782    -17.1875   -14.4802      NaN
  9383 108831.2              170.597             157.12    -15.3884   -12.6832      NaN
  9390 108912.4              170.936             157.458    -13.4223   -10.7177      NaN
  9397 108993.6              171.276             157.795    -11.2961    -8.602270      NaN
  9404 109074.8              171.616             158.132     -9.087096    -6.394335      NaN
  9411 109156.0              171.955             158.469     -6.850225    -4.159913      NaN
  9418 109237.2              172.295             158.808     -4.692358    -2.012041      NaN
  9425 109318.4              172.634             159.145     -2.742310    -0.068892      NaN
  9432 109399.6              172.974             159.483     -1.108978     1.557102      NaN
  9439 109480.8              173.312             159.822      0.045661     2.709131      NaN
  9446 109562.0              173.649             160.161      0.651266     3.318249      NaN
  9453 109643.2              173.985             160.499      0.674750     3.331874      NaN
  9460 109724.4              174.321             160.837      0.133588     2.770349      NaN
  9467 109805.6              174.658             161.176     -0.859372     1.765506      NaN
  9474 109886.8              174.996             161.514     -2.268816     0.354500      NaN
  9481 109968.0              175.335             161.852     -3.936858    -1.304363      NaN
  9488 110049.2              175.673             162.19     -5.794408    -3.178370      NaN
  9495 110130.4              176.012             162.529     -7.753128    -5.141405      NaN
  9502 110211.6              176.352             162.867     -9.757615    -7.159482      NaN
  9509 110292.8              176.693             163.206    -11.7338    -9.149423      NaN
  9516 110374.0              177.032             163.545    -13.6501   -11.0656      NaN
  9523 110455.2              177.37             163.884    -15.4575   -12.8885      NaN
  9530 110536.4              177.71             164.223    -17.1485   -14.5808      NaN
  9537 110617.6              178.048             164.562    -18.7317   -16.1713      NaN
  9544 110698.8              178.387             164.9    -20.1623   -17.6121      NaN
  9551 110780.0              178.724             165.24    -21.4839   -18.9318      NaN
  9558 110861.2              179.061             165.579    -22.6592   -20.1246      NaN
  9565 110942.4              179.398             165.917    -23.7229   -21.1956      NaN
  9572 111023.6              179.734             166.256    -24.6687   -22.158      NaN
  9579 111104.8              180.071             166.595    -25.5217   -23.0124      NaN
  9586 111186.0              180.407             166.935    -26.2678   -23.7707      NaN
  9593 111267.2              180.746             167.274    -26.945   -24.4478      NaN
  9600 111348.4              181.086             167.613    -27.5271   -25.0418      NaN
  9607 111429.6              181.423             167.952    -28.0439   -25.5552      NaN
  9614 111510.8              181.763             168.291    -28.5039   -26.0245      NaN
  9621 111592.0              182.101             168.63    -28.9148   -26.4411      NaN
  9628 111673.2              182.439             168.969    -29.3013   -26.8342      NaN
  9635 111754.4              182.778             169.308    -29.6771   -27.2272      NaN
  9642 111835.6              183.117             169.647    -30.0961   -27.6639      NaN
  9649 111916.8              183.454             169.986    -30.6149   -28.161      NaN
  9656 111998.0              183.793             170.325    -31.4527   -28.9999      NaN
  9663 112079.2              184.133             170.665    -33.0933   -30.6556      NaN
  9670 112160.4              184.472             171.004    -36.8914   -34.4779      NaN
  9677 112241.6              184.811             171.343    -44.7069   -42.2879      NaN
  9684 112322.8              185.15             171.682    -55.6684   -53.2673      NaN
  9691 112404.0              185.489             172.021    -71.0197   -68.6195      NaN
  9698 112485.2              185.827             172.359    -89.0092   -86.6158      NaN
  9705 112566.4              186.164             172.699   -102.796  -100.427      NaN
  9712 112647.6              186.502             173.037    -96.0951   -93.7242      NaN
  9719 112728.8              186.841             173.376    -63.0613   -60.6781      NaN
  9726 112810.0              187.179             173.716    -36.4265   -34.0491      NaN
  9733 112891.2              187.517             174.055    -18.6369   -16.2822      NaN
  9740 112972.4              187.855             174.396     -7.889083    -5.536414      NaN
  9747 113053.6              188.193             174.736     -2.324062     0.013064      NaN
  9754 113134.8              188.529             175.076     -0.605578     1.707393      NaN
  9761 113216.0              188.869             175.416     -1.642204     0.650225 0.892823
  9768 113297.2              189.206             175.757     -4.630803    -2.347803 0.892625
  9775 113378.4              189.545             176.097     -9.076422    -6.805256 0.892427
  9782 113459.6              189.883             176.437    -15.4893   -13.2361 0.892229
  9789 113540.8              190.223             176.777    -30.1117   -27.8639 0.892030
  9796 113622.0              190.563             177.117    -58.3264   -56.0988 0.891830
  9803 113703.2              190.902             177.456    -84.2666   -82.0244 0.891631
  9810 113784.4              191.242             177.795    -97.4296   -95.1947 0.891430
  9817 113865.6              191.582             178.133   -115.499  -113.294 0.891229
  9824 113946.8              191.92             178.472   -135.645  -133.452 0.891027
  9831 114028.0              192.258             178.811   -140.765  -138.577 0.890824
  9838 114109.2              192.595             179.15   -112.041  -109.862 0.890620
  9845 114190.4              192.932             179.489    -89.3495   -87.1621 0.890415
  9852 114271.6              193.268             179.829    -73.8902   -71.7053 0.890210
  9859 114352.8              193.607             180.169    -63.0553   -60.9081 0.890003
  9866 114434.0              193.944             180.51    -55.3287   -53.2028 0.889795
  9873 114515.2              194.282             180.85    -49.7963   -47.6646 0.889587
  9880 114596.4              194.622             181.19    -45.8199   -43.6973 0.889377
  9887 114677.6              194.961             181.531    -42.9754   -40.857 0.889167
  9894 114758.8              195.301             181.872    -40.9315   -38.8477 0.888955
  9901 114840.0              195.64             182.212    -39.4535   -37.378 0.888743
  9908 114921.2              195.98             182.554    -38.432   -36.3652 0.888529
  9915 115002.4              196.318             182.894    -37.6287   -35.5549 0.888315
  9922 115083.6              196.655             183.236    -37.1866   -35.1061 0.888099
  9929 115164.8              196.994             183.576    -36.758   -34.6929 0.887883
  9936 115246.0              197.33             183.917    -36.5448   -34.5102 0.887666
  9943 115327.2              197.67             184.258    -36.4003   -34.371 0.887448
  9950 115408.4              198.006             184.598    -36.3039   -34.2689 0.887229
  9957 115489.6              198.344             184.939    -36.3433   -34.307 0.887008
  9964 115570.8              198.682             185.28    -36.2849   -34.2919 0.886786
  9971 115652.0              199.018             185.622    -36.3084   -34.321 0.886563
  9978 115733.2              199.357             185.963    -36.3074   -34.3415 0.886340
  9985 115814.4              199.694             186.303    -36.2947   -34.314 0.886116
  9992 115895.6              200.034             186.645    -36.407   -34.462 0.885889
  9999 115976.8              200.374             186.986    -36.4217   -34.4878 0.885663
 10006 116058.0              200.711             187.328    -36.5253   -34.6383 0.885434
 10013 116139.2              201.05             187.669    -36.5995   -34.7025 0.885204
 10020 116220.4              201.386             188.01    -36.6216   -34.6855 0.884974
 10027 116301.6              201.724             188.352    -36.7321   -34.7721 0.884741
 10034 116382.8              202.064             188.694    -36.737   -34.7488 0.884508
 10041 116464.0              202.401             189.035    -36.8385   -34.8955 0.884274
 10048 116545.2              202.741             189.377    -36.9047   -35.0331 0.884038
 10055 116626.4              203.078             189.719    -36.8871   -34.9895 0.883800
 10062 116707.6              203.422             190.06    -36.9333   -35.0128 0.883562
 10069 116788.8              203.762             190.402    -36.9829   -35.0593 0.883322
 10076 116870.0              204.101             190.745    -37.122   -35.1752 0.883081
 10083 116951.2              204.438             191.086    -37.1998   -35.2935 0.882838
 10090 117032.4              204.773             191.43    -37.3269   -35.4715 0.882593
 10097 117113.6              205.111             191.772    -37.3629   -35.5462 0.882348
 10104 117194.8              205.445             192.114    -37.4899   -35.7461 0.882101
 10111 117276.0              205.785             192.457    -37.5682   -35.8363 0.881852
 10118 117357.2              206.122             192.799    -37.5962   -35.8429 0.881602
 10125 117438.4              206.461             193.141    -37.7019   -35.9393 0.881351
 10132 117519.6              206.802             193.483    -37.7383   -35.9848 0.881098
 10139 117600.8              207.139             193.826    -37.857   -36.123 0.880843
 10146 117682.0              207.478             194.168    -37.9472   -36.2279 0.880587
 10153 117763.2              207.814             194.511    -38.022   -36.2629 0.880329
 10160 117844.4              208.153             194.854    -38.151   -36.3528 0.880069
 10167 117925.6              208.493             195.197    -38.1682   -36.3653 0.879808
 10174 118006.8              208.831             195.54    -38.2667   -36.4743 0.879545
 10181 118088.0              209.172             195.882    -38.3332   -36.56 0.879281
 10188 118169.2              209.51             196.225    -38.4147   -36.6942 0.879014
 10195 118250.4              209.848             196.568    -38.5315   -36.87 0.878746
 10202 118331.6              210.186             196.911    -38.5794   -36.9247 0.878476
 10209 118412.8              210.521             197.255    -38.6488   -37.0112 0.878204
 10216 118494.0              210.86             197.598    -38.75   -37.1699 0.877930
 10223 118575.2              211.197             197.941    -38.7888   -37.254 0.877655
 10230 118656.4              211.534             198.284    -38.883   -37.297 0.877377
 10237 118737.6              211.876             198.627    -38.8977   -37.2135 0.877098
 10244 118818.8              212.211             198.97    -38.9346   -37.2162 0.876817
 10251 118900.0              212.551             199.313    -39.0455   -37.3848 0.876534
 10258 118981.2              212.892             199.657    -39.0569   -37.4008 0.876249
 10265 119062.4              213.227             199.999    -39.1589   -37.4871 0.875962
 10272 119143.6              213.569             200.343    -39.2475   -37.5829 0.875673
 10279 119224.8              213.908             200.686    -39.2759   -37.5684 0.875381
 10286 119306.0              214.252             201.03    -39.2665   -37.5913 0.875088
 10293 119387.2              214.592             201.373    -39.3659   -37.711 0.874792
 10300 119468.4              214.932             201.717    -39.5115   -37.8461 0.874494
 10307 119549.6              215.269             202.061    -39.6292   -37.9448 0.874193
 10314 119630.8              215.606             202.404    -39.7908   -38.0545 0.873891
 10321 119712.0              215.942             202.749    -39.9067   -38.2733 0.873585
 10328 119793.2              216.279             203.093    -40.0589   -38.4241 0.873277
 10335 119874.4              216.616             203.437    -40.1472   -38.5713 0.872968
 10342 119955.6              216.954             203.782    -40.2772   -38.6609 0.872654
 10349 120036.8              217.291             204.126    -40.3674   -38.8019 0.872340
 10356 120118.0              217.63             204.47    -40.4643   -38.9298 0.872022
 10363 120199.2              217.968             204.814    -40.5385   -39.0817 0.871703
 10370 120280.4              218.307             205.158    -40.5926   -39.1735 0.871380
 10377 120361.6              218.644             205.502    -40.652   -39.265 0.871055
 10384 120442.8              218.98             205.847    -40.7377   -39.4574 0.870727
 10391 120524.0              219.318             206.191    -40.8697   -39.6213 0.870397
 10398 120605.2              219.655             206.535    -40.9416   -39.6401 0.870064
 10405 120686.4              219.993             206.879    -41.0577   -39.7124 0.869728
 10412 120767.6              220.332             207.223    -41.1632   -39.7922 0.869389
 10419 120848.8              220.672             207.567    -41.2571   -39.8619 0.869047
 10426 120930.0              221.011             207.911    -41.3703   -39.914 0.868703
 10433 121011.2              221.35             208.256    -41.459   -40.0213 0.868355
 10440 121092.4              221.688             208.6    -41.5298   -40.0477 0.868004
 10447 121173.6              222.025             208.944    -41.6278   -40.1655 0.867650
 10454 121254.8              222.363             209.288    -41.7697   -40.2702 0.867293
 10461 121336.0              222.699             209.632    -41.8606   -40.2986 0.866934
 10468 121417.2              223.036             209.976    -41.9785   -40.3946 0.866570
 10475 121498.4              223.374             210.321    -42.0897   -40.5485 0.866203
 10482 121579.6              223.712             210.665    -42.2193   -40.7284 0.865834
 10489 121660.8              224.053             211.008    -42.3109   -40.8283 0.865461
 10496 121742.0              224.392             211.352    -42.4111   -40.9951 0.865084
 10503 121823.2              224.732             211.697    -42.4915   -41.0847 0.864703
 10510 121904.4              225.071             212.041    -42.5985   -41.2743 0.864319
 10517 121985.6              225.409             212.385    -42.6969   -41.3978 0.863931
 10524 122066.8              225.747             212.729    -42.7754   -41.4267 0.863539
 10531 122148.0              226.083             213.073    -42.9086   -41.4177 0.863144
 10538 122229.2              226.419             213.417    -43.0467   -41.5333 0.862746
 10545 122310.4              226.755             213.761    -43.1459   -41.5975 0.862342
 10552 122391.6              227.093             214.105    -43.2559   -41.7113 0.861935
 10559 122472.8              227.432             214.449    -43.3604   -41.9772 0.861524
 10566 122554.0              227.77             214.792    -43.4376   -42.1658 0.861110
 10573 122635.2              228.11             215.135    -43.5722   -42.3362 0.860691
 10580 122716.4              228.451             215.479    -43.6974   -42.4862 0.860268
 10587 122797.6              228.793             215.822    -43.8087   -42.673 0.859840
 10594 122878.8              229.132             216.166    -43.8757   -42.6882 0.859407
 10601 122960.0              229.47             216.51    -43.9598   -42.766 0.858969
 10608 123041.2              229.808             216.855    -44.121   -42.9326 0.858526
 10615 123122.4              230.146             217.198    -44.1971   -42.9051 0.858080
 10622 123203.6              230.485             217.542    -44.3529   -43.0754 0.857628
 10629 123284.8              230.822             217.886    -44.5462   -43.2635 0.857172
 10636 123366.0              231.16             218.23    -44.6694   -43.3852 0.856709
 10643 123447.2              231.498             218.574    -44.8259   -43.5981 0.856242
 10650 123528.4              231.835             218.917    -44.9693   -43.768 0.855770
 10657 123609.6              232.171             219.261    -45.1088   -43.9152 0.855293
 10664 123690.8              232.506             219.605    -45.2014   -44.0957 0.854809
 10671 123772.0              232.845             219.949    -45.3583   -44.2897 0.854320
 10678 123853.2              233.184             220.293    -45.4223   -44.3039 0.853826
 10685 123934.4              233.523             220.636    -45.5355   -44.427 0.853326
 10692 124015.6              233.864             220.979    -45.6982   -44.6133 0.852820
 10699 124096.8              234.204             221.323    -45.8668   -44.775 0.852308
 10706 124178.0              234.542             221.667    -45.9669   -44.8526 0.851790
 10713 124259.2              234.878             222.01    -46.1154   -45.1817 0.851265
 10720 124340.4              235.215             222.353    -46.3218   -45.3472 0.850735
 10727 124421.6              235.551             222.697    -46.4632   -45.5017 0.850195
 10734 124502.8              235.889             223.04    -46.5452   -45.5953 0.849651
 10741 124584.0              236.228             223.383    -46.6992   -45.8016 0.849101
 10748 124665.2              236.567             223.726    -46.9155   -45.9993 0.848544
 10755 124746.4              236.907             224.069    -47.065   -46.1564 0.847977
 10762 124827.6              237.247             224.412    -47.2009   -46.2853 0.847405
 10769 124908.8              237.587             224.756    -47.3613   -46.4303 0.846824
 10776 124990.0              237.922             225.099    -47.5827   -46.7163 0.846235
 10783 125071.2              238.256             225.442    -47.7735   -46.9549 0.845640
 10790 125152.4              238.588             225.785    -47.9201   -47.0526 0.845036
 10797 125233.6              238.922             226.128    -48.0785   -47.1492 0.844423
 10804 125314.8              239.257             226.469    -48.2859   -47.3168 0.843805
 10811 125396.0              239.594             226.811    -48.4514   -47.5956 0.843179
 10818 125477.2              239.934             227.152    -48.5996   -47.7944 0.842543
 10825 125558.4              240.275             227.493    -48.7392   -47.9319 0.841899
 10832 125639.6              240.617             227.834    -48.8665   -48.0953 0.841246
 10839 125720.8              240.961             228.175    -49.019   -48.152 0.840583
 10846 125802.0              241.304             228.517    -49.2168   -48.2814 0.839908
 10853 125883.2              241.646             228.86    -49.4528   -48.419 0.839223
 10860 125964.4              241.987             229.202    -49.6174   -48.5853 0.838529
 10867 126045.6              242.326             229.544    -49.8357   -48.8244 0.837822
 10874 126126.8              242.666             229.886    -50.0067   -48.9959 0.837106
 10881 126208.0              243.005             230.229    -50.2558   -49.1894 0.836377
 10888 126289.2              243.346             230.572    -50.516   -49.4914 0.835636
 10895 126370.4              243.685             230.914    -50.7507   -49.8513 0.834885
 10902 126451.6              244.024             231.257    -51.0185   -50.137 0.834120
 10909 126532.8              244.362             231.6    -51.2437   -50.3154 0.833344
 10916 126614.0              244.7             231.944    -51.456   -50.5304 0.832553
 10923 126695.2              245.038             232.287    -51.6853   -50.7447 0.831750
 10930 126776.4              245.375             232.631    -51.9648   -51.0695 0.830931
 10937 126857.6              245.716             232.974    -52.2534   -51.3166 0.830101
 10944 126938.8              246.053             233.317    -52.5613   -51.6482 0.829256
 10951 127020.0              246.389             233.66    -52.8516   -51.9822 0.828398
 10958 127101.2              246.722             234.004    -53.168   -52.4165 0.827522
 10965 127182.4              247.054             234.347    -53.4289   -52.6808 0.826631
 10972 127263.6              247.388             234.689    -53.7157   -52.9389 0.825730
 10979 127344.8              247.724             235.032    -53.9939   -53.2524 0.824810
 10986 127426.0              248.062             235.374    -54.2768   -53.5801 0.823873
 10993 127507.2              248.401             235.717    -54.5751   -53.9237 0.822918
 11000 127588.4              248.743             236.06    -54.8456   -54.1545 0.821945
 11007 127669.6              249.084             236.402    -55.1054   -54.3829 0.820957
 11014 127750.8              249.427             236.744    -55.4079   -54.6112 0.819948
 11021 127832.0              249.77             237.088    -55.7521   -54.8426 0.818916
 11028 127913.2              250.109             237.431    -56.1163   -55.2061 0.817868
 11035 127994.4              250.444             237.772    -56.5224   -55.5334 0.816801
 11042 128075.6              250.779             238.116    -56.8605   -56.0511 0.815708
 11049 128156.8              251.114             238.458    -57.2163   -56.4036 0.814596
 11056 128238.0              251.45             238.801    -57.5496   -56.7245 0.813463
 11063 128319.2              251.789             239.143    -57.9168   -57.1978 0.812304
 11070 128400.4              252.129             239.486    -58.2726   -57.6785 0.811123
 11077 128481.6              252.471             239.828    -58.621   -57.9449 0.809919
 11084 128562.8              252.812             240.17    -59.0487   -58.415 0.808686
 11091 128644.0              253.154             240.512    -59.4675   -58.9655 0.807428
 11098 128725.2              253.493             240.855    -59.8829   -59.5163 0.806142
 11105 128806.4              253.833             241.198    -60.3156   -60.0733 0.804827
 11112 128887.6              254.171             241.541    -60.7954   -60.5649 0.803480
 11119 128968.8              254.511             241.885    -61.2507   -60.9626 0.802103
 11126 129050.0              254.85             242.229    -61.6926   -61.281 0.800692
 11133 129131.2              255.189             242.572    -62.2037   -61.6431 0.799252
 11140 129212.4              255.529             242.915    -62.756   -62.202 0.797777
 11147 129293.6              255.868             243.259    -63.2663   -62.684 0.796266
 11154 129374.8              256.207             243.602    -63.7154   -63.0867 0.794721
 11161 129456.0              256.539             243.947    -64.2004   -63.5783 0.793134
 11168 129537.2              256.871             244.29    -64.71   -64.0811 0.791514
 11175 129618.4              257.2             244.633    -65.3577   -64.8762 0.789856
 11182 129699.6              257.534             244.976    -65.9504   -65.6423 0.788154
 11189 129780.8              257.865             245.318    -66.5045   -66.3239 0.786415
 11196 129862.0              258.203             245.659    -67.1404   -66.8814 0.784635
 11203 129943.2              258.541             246    -67.8193   -67.5438 0.782812
 11210 130024.4              258.885             246.341    -68.4692   -68.0562 0.780942
 11217 130105.6              259.227             246.683    -69.1662   -68.7581 0.779020
 11224 130186.8              259.571             247.024    -69.8612   -69.6516 0.777046
 11231 130268.0              259.914             247.366    -70.5855   -70.4153 0.775018
 11238 130349.2              260.257             247.708    -71.2865   -71.0531 0.772934
 11245 130430.4              260.598             248.05    -71.9678   -71.8356 0.770795
 11252 130511.6              260.937             248.394    -72.6874   -72.4557 0.768582
 11259 130592.8              261.278             248.736    -73.4642   -73.2002 0.766315
 11266 130674.0              261.617             249.078    -74.2957   -74.15 0.763984
 11273 130755.2              261.958             249.421    -75.2117   -74.9769 0.761584
 11280 130836.4              262.295             249.764    -76.1821   -75.9506 0.759107
 11287 130917.6              262.629             250.107    -77.1625   -76.9901 0.756561
 11294 130998.8              262.959             250.45    -78.2214   -78.1358 0.753942
 11301 131080.0              263.287             250.792    -79.3386   -79.3983 0.751249
 11308 131161.2              263.62             251.133    -80.4116   -80.453 0.748475
 11315 131242.4              263.954             251.475    -81.528   -81.4422 0.745616
 11322 131323.6              264.293             251.816    -82.685   -82.4528 0.742676
 11329 131404.8              264.633             252.157    -83.8533   -83.674 0.739640
 11336 131486.0              264.977             252.497    -85.05   -84.887 0.736509
 11343 131567.2              265.319             252.838    -86.2741   -86.1324 0.733278
 11350 131648.4              265.665             253.179    -87.5483   -87.3482 0.729934
 11357 131729.6              266.005             253.52    -88.9096   -88.7137 0.726484
 11364 131810.8              266.345             253.862    -90.3276   -90.1595 0.722900
 11371 131892.0              266.679             254.203    -91.7868   -91.5011 0.719208
 11378 131973.2              267.014             254.544    -93.2767   -93.0376 0.715388
 11385 132054.4              267.346             254.885    -94.8495   -94.841 0.711433
 11392 132135.6              267.683             255.226    -96.4535   -96.4554 0.707344
 11399 132216.8              268.021             255.566    -98.2114   -98.1742 0.703110
 11406 132298.0              268.36             255.906   -100.003  -100.057 0.698719
 11413 132379.2              268.703             256.246   -101.86  -101.955 0.694174
 11420 132460.4              269.046             256.588   -103.786  -103.809 0.689435
 11427 132541.6              269.389             256.927   -105.807  -105.958 0.684536
 11434 132622.8              269.731             257.268   -107.964  -108.206 0.679430
 11441 132704.0              270.073             257.61   -110.196  -110.565 0.674115
 11448 132785.2              270.406             257.951   -112.535  -112.757 0.668581
 11455 132866.4              270.739             258.292   -114.947  -115.053 0.662826
 11462 132947.6              271.068             258.633   -117.57  -117.672 0.656846
 11469 133028.8              271.401             258.973   -120.223  -120.436 0.650605
 11476 133110.0              271.734             259.313   -123.052  -123.404 0.644114
 11483 133191.2              272.075             259.652   -125.94  -126.28 0.637343
 11490 133272.4              272.416             259.99   -128.958  -129.321 0.630270
 11497 133353.6              272.76             260.329   -132.143  -132.568 0.622872
 11504 133434.8              273.103             260.669   -135.493  -135.998 0.615086
 11511 133516.0              273.448             261.009   -138.929  -139.7 0.606935
 11518 133597.2              273.791             261.349   -142.638  -143.518 0.598374
 11525 133678.4              274.129             261.69   -146.503  -147.437 0.589358
 11532 133759.6              274.465             262.03   -150.613  -151.568 0.579872
 11539 133840.8              274.797             262.37   -154.9  -155.76 0.569880
 11546 133922.0              275.135             262.711   -159.378  -160.276 0.559318
 11553 134003.2              275.473             263.049   -164.03  -165.039 0.548200
 11560 134084.4              275.816             263.39   -168.825  -169.487 0.536375
 11567 134165.6              276.156             263.729   -173.9  -174.686 0.523872
 11574 134246.8              276.501             264.069   -179.206  -180.23 0.510504
 11581 134328.0              276.842             264.41   -184.813  -185.837 0.496253
 11588 134409.2              277.187             264.751   -190.693  -191.551 0.481029
 11595 134490.4              277.532             265.092   -196.922  -197.733 0.464672
 11602 134571.6              277.872             265.434   -203.442  -204.204 0.447017
 11609 134652.8              278.214             265.776   -210.247  -211.138 0.428026
 11616 134734.0              278.551             266.118   -217.46  -218.235 0.407461
 11623 134815.2              278.89             266.461   -224.974  -225.855 0.384992
 11630 134896.4              279.226             266.804   -232.878  -233.796 0.360532
 11637 134977.6              279.561             267.147   -241.123  -241.953 0.333667
 11644 135058.8              279.898             267.49   -249.705  -250.514 0.303993
 11651 135140.0              280.235             267.833   -258.575  -259.254 0.271099
 11658 135221.2              280.573             268.176   -267.811  -268.443 0.234281
 11665 135302.4              280.91             268.52   -277.241  -277.832 0.192707
 11672 135383.6              281.249             268.862   -286.866  -287.436 0.145680
 11679 135464.8              281.582             269.205   -296.219  -296.79 0.091418
 11686 135546.0              281.92             269.548   -305.128  -305.958 0.028194
 11693 135627.2              282.256             269.89   -313.02  -313.845      NaN
 11700 135708.4              282.595             270.232   -319.596  -320.203      NaN
 11707 135789.6              282.932             270.575   -325.685  -326.198      NaN
 11714 135870.8              283.27             270.918   -331.289  -331.981      NaN
 11721 135952.0              283.608             271.26   -334.918  -335.637      NaN
 11728 136033.2              283.944             271.603   -337.929  -338.663      NaN
 11735 136114.4              284.284             271.945   -340.248  -341.081      NaN
 11742 136195.6              284.621             272.289   -341.197  -342.315      NaN
 11749 136276.8              284.962             272.631   -334.954  -336.066      NaN
 11756 136358.0              285.298             272.974   -330.798  -331.82      NaN
 11763 136439.2              285.638             273.317   -329.509  -330.478      NaN
 11770 136520.4              285.977             273.66   -329.783  -330.602      NaN
 11777 136601.6              286.316             274.003   -331.636  -332.364      NaN
 11784 136682.8              286.655             274.347   -335.277  -335.922      NaN
 11791 136764.0              286.994             274.691   -340.856  -341.515      NaN
 11798 136845.2              287.332             275.034   -347.984  -348.554      NaN
 11805 136926.4              287.668             275.377   -356.002  -356.695      NaN
 11812 137007.6              288.009             275.72   -366.038  -367.094      NaN
 11819 137088.8              288.347             276.063   -378.172  -379.267      NaN
 11826 137170.0              288.688             276.406   -391.88  -392.888      NaN
 11833 137251.2              289.027             276.749   -408.073  -409.047      NaN
 11840 137332.4              289.366             277.092   -483.277  -484.181      NaN
 11847 137413.6              289.705             277.434   -523.662  -524.437      NaN
 11854 137494.8              290.044             277.776   -523.4  -524.366      NaN
 11861 137576.0              290.38             278.118   -513.073  -514.351      NaN
 11868 137657.2              290.711             278.461   -495.449  -496.493      NaN
 11875 137738.4              291.044             278.803   -475.536  -476.548      NaN
 11882 137819.6              291.374             279.146   -429.472  -430.594      NaN
 11889 137900.8              291.711             279.489   -351.382  -352.403      NaN
 11896 137982.0              292.048             279.833   -292.463  -293.472      NaN
 11903 138063.2              292.39             280.177   -246.719  -247.75      NaN
 11910 138144.4              292.73             280.522   -211.118  -212.212      NaN
 11917 138225.6              293.073             280.868   -183.372  -184.431      NaN
 11924 138306.8              293.412             281.213   -161.828  -162.963      NaN
 11931 138388.0              293.748             281.559   -145.113  -146.279      NaN
 11938 138469.2              294.082             281.905   -132.137  -133.189      NaN
 11945 138550.4              294.417             282.251   -122.078  -123.261      NaN
 11952 138631.6              294.754             282.595   -114.271  -115.733      NaN
 11959 138712.8              295.093             282.94   -108.208  -109.666      NaN
 11966 138794.0              295.435             283.285   -103.489  -104.959      NaN
 11973 138875.2              295.774             283.63    -99.807  -101.169      NaN
 11980 138956.4              296.119             283.974    -96.9175   -98.3547      NaN
 11987 139037.6              296.459             284.32    -94.7116   -96.0267      NaN
 11994 139118.8              296.799             284.665    -92.9671   -94.4      NaN
 12001 139200.0              297.134             285.01    -91.6467   -92.998      NaN
 12008 139281.2              297.468             285.355    -90.6015   -91.7927      NaN
 12015 139362.4              297.799             285.699    -89.8002   -91.1298      NaN
 12022 139443.6              298.135             286.042    -89.1499   -90.5023      NaN
 12029 139524.8              298.471             286.386    -88.6441   -90.0096      NaN
 12036 139606.0              298.809             286.729    -88.2283   -89.599      NaN
 12043 139687.2              299.151             287.071    -87.8749   -89.2064      NaN
 12050 139768.4              299.291             287.412    -87.576   -89.0032      NaN
 12057 139849.6              299.289             287.745    -87.2333   -88.7382      NaN
 12064 139930.8              299.273             288.07    -86.8656   -88.3418      NaN
 12071 140012.0              299.259             288.383    -86.343   -87.7536      NaN
 12078 140093.2              299.243             288.686    -85.615   -86.9757      NaN
 12085 140174.4              299.228             288.98    -84.6636   -85.9505      NaN
 12092 140255.6              299.208             289.264    -83.4759   -84.6817      NaN
 12099 140336.8              299.193             289.538    -82.0517   -83.6021      NaN
 12100 140348.4              299.191             289.576    -81.8338   -83.3958      NaN