File: z_unorganized_archive/i_data/46C/Blank.csv
"Blank - Large HF - -196C to 46C, 0.1 Kmin",,,,
Creation Date : 10/10/2022 9:35:14 AM,,,,
User : admin,,,,
,,,,
HeatFlow :,,,,
 Initial Mass : 0 mg,,,,
 Molar Mass : 17 g/mol,,,,
,,,,
Index,Time(s),Furnace Temperature(K),Sample Temperature(K),HeatFlow(mW)
1,0,318.952,319.0661,-789.414
13,212.4,318.699,319.027,-319.602
25,424.8,318.487,318.984,-130.226
37,637.2,318.293,318.93,-53.1844
49,849.6,318.107,318.866,-21.8384
61,1062,317.913,318.7913,-9.086302
73,1274.4,317.691,318.705,-3.881695
85,1486.8,317.414,318.605,-1.752328
97,1699.2,317.06,318.487,-0.88442
109,1911.6,316.609,318.344,-0.534114
121,2124,316.039,318.168,-0.394816
133,2336.4,315.318,317.951,-0.345096
145,2548.8,314.4,317.681,-0.360861
157,2761.2,313.271,317.344,-0.400117
169,2973.6,311.935,316.928,-0.426753
181,3186,310.42,316.421,-0.432657
193,3398.4,308.783,315.818,-0.440627
205,3610.8,307.074,315.119,-0.44475
217,3823.2,305.327,314.33,-0.445695
229,4035.6,303.573,313.455,-0.430758
241,4248,301.825,312.501,-0.389566
253,4460.4,300.09,311.48,-0.363089
265,4672.8,298.377,310.399,-0.31062
277,4885.2,296.687,309.265,-0.244312
289,5097.6,295.021,308.085,-0.172617
301,5310,293.375,306.867,-0.107424
313,5522.4,291.751,305.613,-0.03954
325,5734.8,290.145,304.336,0.049993
337,5947.2,288.56,303.033,0.150326
349,6159.6,286.997,301.71,0.221146
361,6372,285.457,300.369,0.280335
373,6584.4,283.943,299.015,0.290302
385,6796.8,282.452,297.652,0.248622
397,7009.2,280.982,296.282,0.186377
409,7221.6,279.526,294.909,0.169419
421,7434,278.088,293.538,0.120003
433,7646.4,276.668,292.176,-0.148665
445,7858.8,275.265,290.815,-0.203696
457,8071.2,273.88,289.445,0.012642
469,8283.6,272.512,288.075,0.122447
481,8496,271.16,286.707,0.232419
493,8708.4,269.821,285.344,0.330732
505,8920.8,268.494,283.986,0.389283
517,9133.2,267.179,282.634,0.401602
529,9345.6,265.877,281.289,0.451727
541,9558,264.588,279.951,0.459823
553,9770.4,263.314,278.622,0.5004
565,9982.8,262.053,277.301,0.641788
577,10195.2,260.81,275.989,0.679828
589,10407.6,259.586,274.686,0.741627
601,10620,258.378,273.395,0.850791
613,10832.4,257.184,272.113,0.805383
625,11044.8,256.004,270.842,0.666441
637,11257.2,254.834,269.584,0.656243
649,11469.6,253.676,268.334,0.835925
661,11682,252.527,267.097,0.696853
673,11894.4,251.388,265.87,0.623141
685,12106.8,250.258,264.654,0.622107
697,12319.2,249.138,263.448,0.725479
709,12531.6,248.026,262.252,0.874977
721,12744,246.922,261.066,1.118121
733,12956.4,245.822,259.889,1.307774
745,13168.8,244.73,258.722,1.380153
757,13381.2,243.649,257.563,1.277326
769,13593.6,242.577,256.414,1.070744
781,13806,241.517,255.275,1.113538
793,14018.4,240.468,254.144,1.166308
805,14230.8,239.427,253.023,1.155373
817,14443.2,238.392,251.911,1.410711
829,14655.6,237.353,250.807,1.433465
841,14868,236.305,249.711,1.453564
853,15080.4,235.253,248.62,1.488428
865,15292.8,234.198,247.535,1.362988
877,15505.2,233.147,246.454,1.509797
889,15717.6,232.1,245.377,1.43505
901,15930,231.061,244.306,1.183852
913,16142.4,230.03,243.24,1.404555
925,16354.8,229.008,242.179,1.628738
937,16567.2,227.996,241.123,1.69111
949,16779.6,226.998,240.075,1.774606
961,16992,226.017,239.033,1.611621
973,17204.4,225.055,237.998,1.772945
985,17416.8,224.114,236.973,1.145538
997,17629.2,223.192,235.957,1.29323
1009,17841.6,222.283,234.95,1.369996
1021,18054,221.386,233.954,1.13815
1033,18266.4,220.496,232.968,1.494956
1045,18478.8,219.616,231.99,1.342892
1057,18691.2,218.743,231.023,1.762447
1069,18903.6,217.879,230.066,1.538997
1081,19116,217.018,229.118,1.206438
1093,19328.4,216.16,228.178,1.388302
1105,19540.8,215.302,227.246,1.166744
1117,19753.2,214.441,226.321,1.310926
1129,19965.6,213.579,225.403,1.640247
1141,20178,212.725,224.491,1.510412
1153,20390.4,211.881,223.586,1.802911
1165,20602.8,211.047,222.687,1.56081
1177,20815.2,210.22,221.794,1.206199
1189,21027.6,209.394,220.909,1.302948
1201,21240,208.567,220.03,1.290252
1213,21452.4,207.74,219.156,0.934852
1225,21664.8,206.909,218.287,1.172382
1237,21877.2,206.073,217.423,1.531583
1249,22089.6,205.237,216.563,1.396564
1261,22302,204.409,215.706,1.093647
1273,22514.4,203.593,214.852,1.491159
1285,22726.8,202.782,214.003,1.012822
1297,22939.2,201.974,213.158,1.074049
1309,23151.6,201.175,212.318,1.318354
1321,23364,200.393,211.483,1.354086
1333,23576.4,199.63,210.654,1.314778
1345,23788.8,198.876,209.83,1.276897
1357,24001.2,198.115,209.014,1.12539
1369,24213.6,197.342,208.203,1.150192
1381,24426,196.568,207.395,1.28423
1393,24638.4,195.808,206.592,1.235905
1405,24850.8,195.066,205.794,0.472007
1417,25063.2,194.326,205.002,0.749797
1429,25275.6,193.572,204.213,0.566282
1441,25488,192.81,203.428,1.145946
1453,25700.4,192.057,202.646,1.277845
1465,25912.8,191.32,201.868,0.620449
1477,26125.2,190.582,201.094,0.704848
1489,26337.6,189.834,200.323,0.632346
1501,26550,189.09,199.555,0.419136
1513,26762.4,188.363,198.792,0.55151
1525,26974.8,187.65,198.0324,0.296429
1537,27187.2,186.947,197.277,0.04972
1549,27399.6,186.253,196.528,0.427574
1561,27612,185.548,195.784,0.144426
1573,27824.4,184.822,195.042,-0.039041
1585,28036.8,184.094,194.301,-0.022478
1597,28249.2,183.383,193.565,-0.442832
1609,28461.6,182.691,192.832,-0.150935
1621,28674,181.981,192.101,-0.309458
1633,28886.4,181.244,191.372,-0.509011
1645,29098.8,180.507,190.643,-0.6558
1657,29311.2,179.787,189.915,-0.851774
1669,29523.6,179.077,189.19,-1.063232
1681,29736,178.365,188.467,-1.003366
1693,29948.4,177.668,187.746,-1.174523
1705,30160.8,176.997,187.028,-0.87068
1717,30373.2,176.346,186.316,-0.830009
1729,30585.6,175.706,185.609,-1.020329
1741,30798,175.064,184.908,-1.20337
1753,31010.4,174.423,184.213,-0.738632
1765,31222.8,173.784,183.522,-0.425074
1777,31435.2,173.147,182.835,-0.441374
1789,31647.6,172.509,182.154,-0.613068
1801,31860,171.868,181.475,-0.83477
1813,32072.4,171.238,180.802,-0.936005
1825,32284.8,170.612,180.131,-1.037924
1837,32497.2,169.982,179.464,-0.716541
1849,32709.6,169.352,178.802,-0.658889
1861,32922,168.725,178.141,-0.742885
1873,33134.4,168.101,177.485,-0.355923
1885,33346.8,167.47,176.831,-0.365343
1897,33559.2,166.839,176.179,-0.367076
1909,33771.6,166.197,175.53,-0.485928
1921,33984,165.557,174.881,-0.67768
1933,34196.4,164.936,174.235,-0.760014
1945,34408.8,164.346,173.592,-0.734826
1957,34621.2,163.771,172.955,-0.45096
1969,34833.6,163.176,172.321,-0.784204
1981,35046,162.568,171.69,-0.452412
1993,35258.4,161.976,171.062,-0.630595
2005,35470.8,161.412,170.439,-0.356645
2017,35683.2,160.866,169.821,-0.334647
2029,35895.6,160.282,169.207,-0.287385
2041,36108,159.657,168.594,-0.523649
2053,36320.4,159.033,167.98,-0.513052
2065,36532.8,158.437,167.368,-0.595083
2077,36745.2,157.871,166.759,-0.339553
2089,36957.6,157.306,166.153,-0.209173
2101,37170,156.744,165.551,-0.569244
2113,37382.4,156.201,164.952,-0.478424
2125,37594.8,155.663,164.359,-0.370531
2137,37807.2,155.06,163.768,-0.349651
2149,38019.6,154.406,163.173,-0.366746
2161,38232,153.762,162.575,-0.190802
2173,38444.4,153.154,161.976,0.094237
2185,38656.8,152.59,161.38,-0.022916
2197,38869.2,152.041,160.787,0.004454
2209,39081.6,151.498,160.197,-0.303377
2221,39294,150.982,159.611,-0.131686
2233,39506.4,150.499,159.033,0.04912
2245,39718.8,150.028,158.462,-0.385157
2257,39931.2,149.565,157.898,-0.384428
2269,40143.6,149.11,157.341,-0.53997
2281,40356,148.596,156.791,-0.66668
2293,40568.4,147.98,156.238,-0.507433
2305,40780.8,147.33,155.68,-0.244395
2317,40993.2,146.704,155.117,-0.093678
2329,41205.6,146.122,154.551,-0.35085
2341,41418,145.594,153.987,0.054559
2353,41630.4,145.089,153.427,0.280257
2365,41842.8,144.59,152.872,-0.07303
2377,42055.2,144.096,152.321,-0.206263
2389,42267.6,143.587,151.774,-0.501099
2401,42480,143.075,151.23,-0.257411
2413,42692.4,142.549,150.687,-0.355595
2425,42904.8,142.02,150.145,-0.178369
2437,43117.2,141.492,149.606,-0.027833
2449,43329.6,140.97,149.067,-0.317555
2461,43542,140.435,148.53,-0.105213
2473,43754.4,139.91,147.992,-0.349458
2485,43966.8,139.371,147.456,-0.305068
2497,44179.2,138.836,146.92,-0.316833
2509,44391.6,138.327,146.385,-0.300895
2521,44604,137.803,145.853,-0.118363
2533,44816.4,137.216,145.318,-0.275563
2545,45028.8,136.613,144.779,-0.203944
2557,45241.2,136.045,144.237,-0.057126
2569,45453.6,135.537,143.696,-0.087441
2581,45666,135.069,143.161,-0.173065
2593,45878.4,134.558,142.628,-0.27775
2605,46090.8,133.992,142.093,-0.157393
2617,46303.2,133.427,141.557,-0.207528
2629,46515.6,132.903,141.021,-0.404635
2641,46728,132.431,140.488,-0.50184
2653,46940.4,132.001,139.962,-0.199166
2665,47152.8,131.566,139.441,-0.28415
2677,47365.2,131.118,138.926,-0.369329
2689,47577.6,130.658,138.414,-0.404703
2701,47790,130.173,137.907,-0.317272
2713,48002.4,129.678,137.399,-0.358716
2725,48214.8,129.184,136.894,-0.250995
2737,48427.2,128.66,136.388,-0.255893
2749,48639.6,128.139,135.88,-0.406017
2761,48852,127.651,135.373,-0.483117
2773,49064.4,127.203,134.869,-0.509405
2785,49276.8,126.747,134.369,-0.298928
2797,49489.2,126.286,133.872,-0.366217
2809,49701.6,125.846,133.378,-0.33377
2821,49914,125.426,132.888,-0.276715
2833,50126.4,124.986,132.401,-0.401544
2845,50338.8,124.539,131.919,-0.466874
2857,50551.2,124.083,131.438,-0.34611
2869,50763.6,123.613,130.958,-0.179908
2881,50976,123.152,130.481,-0.272102
2893,51188.4,122.699,130.003,-0.353621
2905,51400.8,122.239,129.527,-0.096859
2917,51613.2,121.796,129.052,-0.067771
2929,51825.6,121.357,128.582,-0.26138
2941,52038,120.904,128.112,-0.170508
2953,52250.4,120.462,127.644,-0.146913
2965,52462.8,120.052,127.178,-0.162028
2977,52675.2,119.68,126.717,-0.198089
2989,52887.6,119.334,126.263,-0.352353
3001,53100,118.977,125.815,-0.339325
3013,53312.4,118.6005,125.373,-0.437856
3025,53524.8,118.232,124.936,-0.395159
3037,53737.2,117.872,124.503,-0.315563
3049,53949.6,117.487,124.074,-0.227901
3061,54162,117.093,123.647,-0.200157
3073,54374.4,116.719,123.223,-0.225136
3085,54586.8,116.378,122.803,-0.154764
3097,54799.2,116.06,122.391,-0.156312
3109,55011.6,115.712,121.982,-0.110304
3121,55224,115.329,121.577,-0.031597
3133,55436.4,114.948,121.172,-0.176541
3145,55648.8,114.593,120.77,-0.194324
3157,55861.2,114.274,120.371,-0.182668
3169,56073.6,113.954,119.978,-0.190683
3181,56286,113.601,119.59,-0.157416
3193,56498.4,113.23,119.201,-0.10035
3205,56710.8,112.88,118.816,-0.102361
3217,56923.2,112.564,118.434,-0.082096
3229,57135.6,112.266,118.056,-0.133449
3241,57348,111.95,117.683,-0.174153
3253,57560.4,111.62,117.313,-0.217718
3265,57772.8,111.297,116.945,-0.167619
3277,57985.2,110.9961,116.581,-0.22622
3289,58197.6,110.727,116.224,-0.29909
3301,58410,110.464,115.87,-0.157216
3313,58622.4,110.167,115.522,-0.149818
3325,58834.8,109.852,115.177,-0.104014
3337,59047.2,109.553,114.834,-0.07752
3349,59259.6,109.2815,114.494,-0.224679
3361,59472,109.035,114.159,-0.252676
3373,59684.4,108.794,113.831,-0.250839
3385,59896.8,108.549,113.508,-0.102505
3397,60109.2,108.309,113.191,-0.099088
3409,60321.6,108.087,112.878,-0.096567
3421,60534,107.869,112.572,-0.187145
3433,60746.4,107.638,112.271,-0.165214
3445,60958.8,107.41,111.974,-0.173539
3457,61171.2,107.184,111.682,-0.141643
3469,61383.6,106.923,111.393,-0.205675
3481,61596,106.625,111.103,-0.219375
3493,61808.4,106.327,110.814,-0.178406
3505,62020.8,106.049,110.525,-0.109378
3517,62233.2,105.804,110.237,-0.129171
3529,62445.6,105.588,109.953,-0.164603
3541,62658,105.371,109.673,-0.157149
3553,62870.4,105.155,109.398,-0.210273
3565,63082.8,104.926,109.125,-0.178141
3577,63295.2,104.686,108.855,-0.223361
3589,63507.6,104.453,108.587,-0.15497
3601,63720,104.242,108.322,-0.143311
3613,63932.4,104.055,108.061,-0.159373
3625,64144.8,103.867,107.805,-0.156205
3637,64357.2,103.676,107.553,-0.179314
3649,64569.6,103.494,107.306,-0.19235
3661,64782,103.333,107.063,-0.188573
3673,64994.4,103.185,106.826,-0.211536
3685,65206.8,103.022,106.594,-0.220212
3697,65419.2,102.822,106.366,-0.206853
3709,65631.6,102.61,106.138,-0.20978
3721,65844,102.407,105.912,-0.257633
3733,66056.4,102.229,105.688,-0.277689
3745,66268.8,102.075,105.467,-0.214099
3757,66481.2,101.9,105.251,-0.17415
3769,66693.6,101.693,105.036,-0.209979
3781,66906,101.48,104.821,-0.239136
3793,67118.4,101.284,104.608,-0.267415
3805,67330.8,101.11,104.395,-0.226307
3817,67543.2,100.954,104.185,-0.236766
3829,67755.6,100.807,103.98,-0.217933
3841,67968,100.669,103.779,-0.228725
3853,68180.4,100.549,103.582,-0.224184
3865,68392.8,100.449,103.392,-0.264131
3877,68605.2,100.364,103.206,-0.264197
3889,68817.6,100.282,103.029,-0.290837
3901,69030,100.197,102.857,-0.299787
3913,69242.4,100.104,102.691,-0.29657
3925,69454.8,99.9959,102.529,-0.312783
3937,69667.2,99.8869,102.371,-0.286125
3949,69879.6,99.7592,102.215,-0.283185
3961,70092,99.6178,102.06,-0.289499
3973,70304.4,99.4829,101.906,-0.28357
3985,70516.8,99.3707,101.754,-0.335335
3997,70729.2,99.2828,101.607,-0.312497
4009,70941.6,99.1997,101.463,-0.325833
4021,71154,99.1015,101.323,-0.342521
4033,71366.4,98.9965,101.185,-0.323919
4045,71578.8,98.905,101.049,-0.315608
4057,71791.2,98.8368,100.918,-0.344008
4069,72003.6,98.7871,100.791,-0.37346
4081,72216,98.7472,100.67,-0.3648
4093,72428.4,98.7172,100.554,-0.403679
4105,72640.8,98.6859,100.444,-0.38695
4117,72853.2,98.6296,100.338,-0.376553
4129,73065.6,98.5519,100.235,-0.384605
4141,73278,98.4744,100.134,-0.404431
4153,73490.4,98.4155,100.034,-0.395348
4165,73702.8,98.3798,99.9377,-0.39971
4177,73915.2,98.3665,99.8467,-0.414845
4189,74127.6,98.3722,99.7613,-0.435378
4201,74340,98.3862,99.6825,-0.434318
4213,74552.4,98.3964,99.6095,-0.448094
4225,74764.8,98.3943,99.5411,-0.44565
4237,74977.2,98.387,99.4778,-0.453327
4249,75189.6,98.3819,99.4171,-0.472501
4261,75402,98.3861,99.3613,-0.484568
4273,75614.4,98.4015,99.3092,-0.490876
4285,75826.8,98.4268,99.2625,-0.505295
4297,76039.2,98.4481,99.2199,-0.517675
4309,76251.6,98.4542,99.1816,-0.511065
4321,76464,98.4524,99.1449,-0.533261
4333,76676.4,98.4508,99.1109,-0.534772
4345,76888.8,98.4572,99.0792,-0.53322
4357,77101.2,98.47457,99.0501,-0.531995
4369,77313.6,98.5057,99.0263,-0.545678
4381,77526,98.5468,99.0041,-0.56343
4393,77738.4,98.5933,98.9865,-0.574038
4405,77950.8,98.6402,98.9744,-0.591413
4417,78163.2,98.6816,98.9645,-0.596216
4429,78375.6,98.7145,98.9586,-0.590134
4441,78588,98.7386,98.9547,-0.599322
4453,78800.4,98.7543,98.9518,-0.595941
4465,79012.8,98.7675,98.9507,-0.596965
4477,79225.2,98.7827,98.9503,-0.60308
4489,79437.6,98.8052,98.9512,-0.614621
4501,79650,98.8344,98.9533,-0.621401
4513,79862.4,98.8547,98.9576,-0.620699
4525,80074.8,98.8602,98.9622,-0.60166
4537,80287.2,98.8568,98.9656,-0.595871
4549,80499.6,98.8553,98.9701,-0.596527
4561,80712,98.8644,98.9736,-0.608392
4573,80924.4,98.8962,98.97843,-0.623644
4585,81136.8,98.9439,98.9852,-0.617837
4597,81349.2,98.9956,98.9951,-0.620839
4609,81561.6,99.0493,99.0073,-0.638085
4621,81774,99.0906,99.02236,-0.641736
4633,81986.4,99.1134,99.0389,-0.649449
4645,82198.8,99.1219,99.0545,-0.631043
4657,82411.2,99.1279,99.0698,-0.623497
4669,82623.6,99.1431,99.0849,-0.640715
4681,82836,99.1829,99.1004,-0.640631
4693,83048.4,99.2373,99.1186,-0.658503
4705,83260.8,99.2898,99.1386,-0.649236
4717,83473.2,99.3373,99.1606,-0.658267
4729,83685.6,99.38526,99.1841,-0.659152
4741,83898,99.42385,99.2092,-0.671887
4753,84110.4,99.4489,99.2345,-0.658192
4765,84322.8,99.4642,99.25881,-0.658056
4777,84535.2,99.4822,99.2837,-0.654869
4789,84747.6,99.52146,99.3083,-0.64593
4801,84960,99.5777,99.3347,-0.668462
4813,85172.4,99.6351,99.3627,-0.674394
4825,85384.8,99.6902,99.393,-0.672868
4837,85597.2,99.7365,99.4241,-0.679454
4849,85809.6,99.76734,99.45574,-0.688401
4861,86022,99.7842,99.4873,-0.67571
4873,86234.4,99.7973,99.5169,-0.669795
4885,86446.8,99.8207,99.5467,-0.670639
4897,86659.2,99.8559,99.57572,-0.678581
4909,86871.6,99.8984,99.6061,-0.678069
4921,87084,99.9332,99.6374,-0.668099
4933,87296.4,99.9535,99.667,-0.674007
4945,87508.8,99.9592,99.6964,-0.670128
4957,87721.2,99.95896,99.7235,-0.667276
4969,87933.6,99.965,99.7499,-0.653974
4981,88146,99.99343,99.7747,-0.66665
4993,88358.4,100.034,99.8007,-0.658075
5005,88570.8,100.083,99.8279,-0.671069
5017,88783.2,100.137,99.8566,-0.669222
5029,88995.6,100.183,99.8867,-0.680843
5041,89208,100.215,99.9178,-0.672581
5053,89420.4,100.238,99.9479,-0.675778
5065,89632.8,100.263,99.9782,-0.678299
5077,89845.2,100.294,100.008,-0.672408
5089,90057.6,100.335,100.038,-0.679305
5101,90270,100.374,100.069,-0.665001
5113,90482.4,100.405,100.1,-0.676596
5125,90694.8,100.43,100.131,-0.67205
5137,90907.2,100.46,100.161,-0.667846
5149,91119.6,100.496,100.192,-0.664985
5161,91332,100.535,100.223,-0.679926
5173,91544.4,100.567,100.255,-0.67941
5185,91756.8,100.588,100.286,-0.671509
5197,91969.2,100.603,100.317,-0.678387
5209,92181.6,100.625,100.346,-0.673519
5221,92394,100.657,100.376,-0.676374
5233,92606.4,100.691,100.405,-0.667485
5245,92818.8,100.717,100.436,-0.673687
5257,93031.2,100.734,100.464,-0.673189
5269,93243.6,100.751,100.492,-0.663983
5281,93456,100.78,100.52,-0.662824
5293,93668.4,100.816,100.548,-0.654291
5305,93880.8,100.854,100.577,-0.671549
5317,94093.2,100.882,100.606,-0.672056
5329,94305.6,100.897,100.635,-0.661851
5341,94518,100.904,100.663,-0.661027
5353,94730.4,100.915,100.689,-0.66691
5365,94942.8,100.939,100.715,-0.665425
5377,95155.2,100.976,100.741,-0.657588
5389,95367.6,101.018,100.768,-0.661787
5401,95580,101.063,100.796,-0.672334
5413,95792.4,101.107,100.826,-0.673503
5425,96004.8,101.141,100.854,-0.664319
5437,96217.2,101.165,100.883,-0.677856
5449,96429.6,101.189,100.913,-0.659989
5461,96642,101.218,100.942,-0.678528
5473,96854.4,101.249,100.972,-0.663339
5485,97066.8,101.273,101,-0.673194
5497,97279.2,101.285,101.029,-0.667028
5509,97491.6,101.289,101.056,-0.660207
5521,97704,101.294,101.082,-0.663731
5533,97916.4,101.306,101.106,-0.660931
5545,98128.8,101.325,101.13,-0.659799
5557,98341.2,101.342,101.154,-0.651003
5569,98553.6,101.349,101.177,-0.660545
5581,98766,101.344,101.198,-0.652432
5593,98978.4,101.338,101.217,-0.641331
5605,99190.8,101.341,101.236,-0.643564
5617,99403.2,101.356,101.253,-0.645137
5629,99615.6,101.377,101.271,-0.640713
5641,99828,101.395,101.289,-0.632294
5653,100040.4,101.402,101.306,-0.645519
5665,100252.8,101.398,101.323,-0.641103
5677,100465.2,101.391,101.338,-0.631372
5689,100677.6,101.394,101.352,-0.637289
5701,100890,101.404,101.366,-0.61825
5713,101102.4,101.416,101.38,-0.628827
5725,101314.8,101.493,101.393,-0.630752
5737,101527.2,101.917,101.418,-0.70845
5749,101739.6,102.505,101.472,-0.818846
5761,101952,103.011,101.556,-0.895021
5773,102164.4,103.413,101.665,-0.934713
5785,102376.8,103.764,101.792,-0.97519
5797,102589.2,104.106,101.932,-0.992615
5809,102801.6,104.457,102.086,-1.022458
5821,103014,104.81,102.252,-1.042212
5833,103226.4,105.162,102.43,-1.077642
5845,103438.8,105.516,102.619,-1.110239
5857,103651.2,105.875,102.819,-1.123894
5869,103863.6,106.238,103.029,-1.152185
5881,104076,106.591,103.248,-1.17276
5893,104288.4,106.938,103.475,-1.188279
5905,104500.8,107.289,103.7107,-1.199423
5917,104713.2,107.648,103.953,-1.227081
5929,104925.6,108.005,104.201,-1.24904
5941,105138,108.357,104.457,-1.259483
5953,105350.4,108.712,104.719,-1.261411
5965,105562.8,109.071,104.986,-1.283644
5977,105775.2,109.431,105.26,-1.294427
5989,105987.6,109.785,105.538,-1.308015
6001,106200,110.1314,105.821,-1.308661
6013,106412.4,110.483,106.108,-1.320802
6025,106624.8,110.839,106.399,-1.327103
6037,106837.2,111.201,106.693,-1.328878
6049,107049.6,111.562,106.992,-1.344598
6061,107262,111.917,107.294,-1.357043
6073,107474.4,112.264,107.6,-1.357682
6085,107686.8,112.611,107.907,-1.350723
6097,107899.2,112.965,108.217,-1.362373
6109,108111.6,113.324,108.53,-1.361049
6121,108324,113.686,108.846,-1.372263
6133,108536.4,114.041,109.165,-1.381201
6145,108748.8,114.389,109.485,-1.375104
6157,108961.2,114.739,109.806,-1.369025
6169,109173.6,115.094,110.13,-1.373839
6181,109386,115.454,110.454,-1.374902
6193,109598.4,115.811,110.781,-1.379035
6205,109810.8,116.162,111.11,-1.372036
6217,110023.2,116.514,111.44,-1.378902
6229,110235.6,116.872,111.772,-1.369759
6241,110448,117.229,112.106,-1.3824
6253,110660.4,117.578,112.44,-1.377562
6265,110872.8,117.927,112.775,-1.364517
6277,111085.2,118.278,113.11,-1.373126
6289,111297.6,118.633,113.446,-1.366225
6301,111510,118.99,113.783,-1.369944
6313,111722.4,119.343,114.12,-1.376964
6325,111934.8,119.693,114.459,-1.364964
6337,112147.2,120.046,114.798,-1.372868
6349,112359.6,120.406,115.138,-1.367238
6361,112572,120.768,115.479,-1.371498
6373,112784.4,121.124,115.821,-1.371561
6385,112996.8,121.472,116.163,-1.362691
6397,113209.2,121.821,116.506,-1.368419
6409,113421.6,122.168,116.847,-1.35636
6421,113634,122.52,117.19,-1.340208
6433,113846.4,122.876,117.532,-1.346263
6445,114058.8,123.237,117.875,-1.347878
6457,114271.2,123.6,118.219,-1.344201
6469,114483.6,123.955,118.565,-1.346091
6481,114696,124.302,118.909,-1.321393
6493,114908.4,124.65,119.254,-1.332389
6505,115120.8,125.005,119.599,-1.333154
6517,115333.2,125.365,119.943,-1.315924
6529,115545.6,125.722,120.289,-1.331786
6541,115758,126.077,120.637,-1.331094
6553,115970.4,126.433,120.984,-1.311965
6565,116182.8,126.78,121.332,-1.310185
6577,116395.2,127.126,121.679,-1.309568
6589,116607.6,127.48,122.025,-1.312693
6601,116820,127.838,122.371,-1.300373
6613,117032.4,128.198,122.718,-1.291817
6625,117244.8,128.549,123.065,-1.298099
6637,117457.2,128.9,123.414,-1.297816
6649,117669.6,129.252,123.761,-1.288481
6661,117882,129.607,124.108,-1.278349
6673,118094.4,129.962,124.4551,-1.288577
6685,118306.8,130.314,124.803,-1.283278
6697,118519.2,130.67,125.15,-1.281665
6709,118731.6,131.028,125.497,-1.271652
6721,118944,131.39,125.846,-1.274261
6733,119156.4,131.749,126.195,-1.274626
6745,119368.8,132.102,126.545,-1.259393
6757,119581.2,132.454,126.896,-1.265629
6769,119793.6,132.805,127.246,-1.26463
6781,120006,133.151,127.597,-1.248692
6793,120218.4,133.5,127.946,-1.253556
6805,120430.8,133.855,128.295,-1.252891
6817,120643.2,134.215,128.645,-1.241228
6829,120855.6,134.575,128.994,-1.237306
6841,121068,134.932,129.346,-1.245442
6853,121280.4,135.282,129.697,-1.24234
6865,121492.8,135.628,130.048,-1.235171
6877,121705.2,135.979,130.398,-1.232122
6889,121917.6,136.335,130.748,-1.225835
6901,122130,136.694,131.098,-1.219841
6913,122342.4,137.049,131.449,-1.217128
6925,122554.8,137.398,131.799,-1.22064
6937,122767.2,137.752,132.1491,-1.217136
6949,122979.6,138.111,132.499,-1.216878
6961,123192,138.471,132.851,-1.204805
6973,123404.4,138.823,133.202,-1.208057
6985,123616.8,139.169,133.553,-1.20248
6997,123829.2,139.521,133.904,-1.197996
7009,124041.6,139.879,134.255,-1.191938
7021,124254,140.234,134.606,-1.197074
7033,124466.4,140.588,134.956,-1.185481
7045,124678.8,140.944,135.308,-1.183991
7057,124891.2,141.299,135.66,-1.187797
7069,125103.6,141.649,136.012,-1.180777
7081,125316,141.998,136.363,-1.170367
7093,125528.4,142.348,136.714,-1.172622
7105,125740.8,142.699,137.063,-1.169374
7117,125953.2,143.058,137.413,-1.166135
7129,126165.6,143.419,137.762,-1.16945
7141,126378,143.777,138.113,-1.1631
7153,126590.4,144.128,138.464,-1.162501
7165,126802.8,144.478,138.815,-1.15853
7177,127015.2,144.832,139.166,-1.152505
7189,127227.6,145.191,139.516,-1.139779
7201,127440,145.548,139.868,-1.142858
7213,127652.4,145.897,140.22,-1.142321
7225,127864.8,146.248,140.571,-1.142049
7237,128077.2,146.604,140.922,-1.135358
7249,128289.6,146.963,141.273,-1.13793
7261,128502,147.318,141.625,-1.137417
7273,128714.4,147.665,141.977,-1.127964
7285,128926.8,148.014,142.329,-1.113449
7297,129139.2,148.371,142.68,-1.118094
7309,129351.6,148.73,143.032,-1.117893
7321,129564,149.09,143.385,-1.117692
7333,129776.4,149.441,143.737,-1.112938
7345,129988.8,149.789,144.09,-1.105421
7357,130201.2,150.143,144.443,-1.106767
7369,130413.6,150.501,144.795,-1.10837
7381,130626,150.859,145.149,-1.107448
7393,130838.4,151.21,145.501,-1.092219
7405,131050.8,151.559,145.854,-1.087829
7417,131263.2,151.913,146.207,-1.087462
7429,131475.6,152.271,146.56,-1.08985
7441,131688,152.626,146.914,-1.078759
7453,131900.4,152.979,147.266,-1.07145
7465,132112.8,153.328,147.621,-1.073111
7477,132325.2,153.683,147.974,-1.071549
7489,132537.6,154.041,148.327,-1.066279
7501,132750,154.398,148.681,-1.06548
7513,132962.4,154.746,149.035,-1.062216
7525,133174.8,155.095,149.387,-1.055771
7537,133387.2,155.45,149.741,-1.038264
7549,133599.6,155.81,150.094,-1.042944
7561,133812,156.169,150.448,-1.049323
7573,134024.4,156.521,150.802,-1.039761
7585,134236.8,156.87,151.156,-1.03733
7597,134449.2,157.221,151.51,-1.035152
7609,134661.6,157.58,151.863,-1.026406
7621,134874,157.939,152.218,-1.017199
7633,135086.4,158.293,152.572,-1.033782
7645,135298.8,158.64,152.927,-1.028967
7657,135511.2,158.99,153.28,-1.024419
7669,135723.6,159.346,153.634,-1.026656
7681,135936,159.706,153.988,-0.999678
7693,136148.4,160.066,154.342,-1.008942
7705,136360.8,160.421,154.697,-1.016973
7717,136573.2,160.769,155.053,-1.00552
7729,136785.6,161.119,155.408,-0.986191
7741,136998,161.473,155.762,-0.980103
7753,137210.4,161.831,156.116,-0.979536
7765,137422.8,162.183,156.471,-0.977063
7777,137635.2,162.532,156.826,-0.971498
7789,137847.6,162.885,157.181,-0.999042
7801,138060,163.2433,157.535,-1.006782
7813,138272.4,163.603,157.89,-0.992191
7825,138484.8,163.957,158.2452,-0.958929
7837,138697.2,164.31,158.6,-0.961969
7849,138909.6,164.659,158.955,-0.952484
7861,139122,165.009,159.31,-0.9435
7873,139334.4,165.361,159.664,-0.954336
7885,139546.8,165.72,160.019,-0.948439
7897,139759.2,166.08,160.374,-0.9482
7909,139971.6,166.433,160.729,-0.930848
7921,140184,166.782,161.084,-0.904887
7933,140396.4,167.134,161.438,-0.930206
7945,140608.8,167.491,161.793,-0.956154
7957,140821.2,167.85,162.147,-0.950792
7969,141033.6,168.206,162.503,-0.930551
7981,141246,168.557,162.858,-0.911999
7993,141458.4,168.905,163.214,-0.889092
8005,141670.8,169.258,163.569,-0.878538
8017,141883.2,169.613,163.9233,-0.890469
8029,142095.6,169.966,164.278,-0.878333
8041,142308,170.321,164.633,-0.884464
8053,142520.4,170.679,164.987,-0.877451
8065,142732.8,171.037,165.342,-0.895303
8077,142945.2,171.392,165.698,-0.878181
8089,143157.6,171.738,166.054,-0.87075
8101,143370,172.089,166.408,-0.874113
8113,143582.4,172.445,166.763,-0.878842
8125,143794.8,172.805,167.118,-0.840146
8137,144007.2,173.159,167.473,-0.852443
8149,144219.6,173.51,167.829,-0.823009
8161,144432,173.865,168.183,-0.811639
8173,144644.4,174.222,168.538,-0.805752
8185,144856.8,174.573,168.894,-0.837552
8197,145069.2,174.924,169.248,-0.813977
8209,145281.6,175.277,169.604,-0.802461
8221,145494,175.627,169.959,-0.75256
8233,145706.4,175.981,170.313,-0.780662
8245,145918.8,176.34,170.667,-0.77556
8257,146131.2,176.6985,171.021,-0.798158
8269,146343.6,177.05,171.376,-0.814401
8281,146556,177.402,171.731,-0.792443
8293,146768.4,177.758,172.086,-0.772337
8305,146980.8,178.116,172.441,-0.789453
8317,147193.2,178.469,172.797,-0.802274
8329,147405.6,178.821,173.152,-0.763262
8341,147618,179.175,173.507,-0.773638
8353,147830.4,179.532,173.863,-0.745902
8365,148042.8,179.886,174.219,-0.716684
8377,148255.2,180.239,174.574,-0.649111
8389,148467.6,180.591,174.93,-0.689984
8401,148680,180.941,175.286,-0.680677
8413,148892.4,181.295,175.641,-0.665422
8425,149104.8,181.653,175.997,-0.655733
8437,149317.2,182.003,176.352,-0.662845
8449,149529.6,182.351,176.707,-0.660243
8461,149742,182.706,177.061,-0.650827
8473,149954.4,183.065,177.416,-0.662764
8485,150166.8,183.424,177.77,-0.672698
8497,150379.2,183.776,178.125,-0.659794
8509,150591.6,184.125,178.479,-0.623046
8521,150804,184.478,178.834,-0.610679
8533,151016.4,184.838,179.189,-0.578239
8545,151228.8,185.197,179.544,-0.593242
8557,151441.2,185.549,179.899,-0.59404
8569,151653.6,185.898,180.254,-0.558912
8581,151866,186.25,180.609,-0.59716
8593,152078.4,186.601,180.963,-0.581884
8605,152290.8,186.956,181.317,-0.565346
8617,152503.2,187.31,181.672,-0.608218
8629,152715.6,187.666,182.025,-0.568319
8641,152928,188.026,182.38,-0.591417
8653,153140.4,188.383,182.735,-0.540622
8665,153352.8,188.735,183.091,-0.500731
8677,153565.2,189.09,183.446,-0.55614
8689,153777.6,189.44,183.802,-0.500838
8701,153990,189.791,184.156,-0.51787
8713,154202.4,190.145,184.511,-0.534864
8725,154414.8,190.505,184.866,-0.479357
8737,154627.2,190.861,185.223,-0.347106
8749,154839.6,191.212,185.578,-0.378357
8761,155052,191.564,185.933,-0.507384
8773,155264.4,191.921,186.289,-0.470735
8785,155476.8,192.278,186.645,-0.46998
8797,155689.2,192.629,187.002,-0.37832
8809,155901.6,192.9793,187.358,-0.429137
8821,156114,193.335,187.714,-0.383829
8833,156326.4,193.693,188.07,-0.385303
8845,156538.8,194.049,188.428,-0.341844
8857,156751.2,194.402,188.785,-0.337224
8869,156963.6,194.753,189.142,-0.388226
8881,157176,195.106,189.498,-0.326962
8893,157388.4,195.461,189.856,-0.217519
8905,157600.8,195.816,190.212,-0.156161
8917,157813.2,196.172,190.57,-0.244402
8929,158025.6,196.525,190.928,-0.301746
8941,158238,196.879,191.286,-0.340691
8953,158450.4,197.232,191.644,-0.420883
8965,158662.8,197.585,192.001,-0.36593
8977,158875.2,197.938,192.358,-0.353179
8989,159087.6,198.289,192.716,-0.343175
9001,159300,198.641,193.073,-0.219552
9013,159512.4,198.996,193.43,-0.266684
9025,159724.8,199.35,193.786,-0.315383
9037,159937.2,199.705,194.143,-0.357522
9049,160149.6,200.06,194.5,-0.274148
9061,160362,200.4149,194.856,-0.246013
9073,160574.4,200.77,195.213,-0.176427
9085,160786.8,201.123,195.569,-0.128345
9097,160999.2,201.479,195.927,-0.262632
9109,161211.6,201.832,196.283,-0.228217
9121,161424,202.186,196.64,-0.106032
9133,161636.4,202.542,196.997,-0.317763
9145,161848.8,202.899,197.355,-0.276799
9157,162061.2,203.25,197.712,-0.176168
9169,162273.6,203.599,198.069,-0.034374
9181,162486,203.951,198.425,-0.194106
9193,162698.4,204.307,198.782,-0.248546
9205,162910.8,204.664,199.138,-0.303491
9217,163123.2,205.021,199.495,-0.203967
9229,163335.6,205.375,199.853,-0.187991
9241,163548,205.723,200.21,-0.179413
9253,163760.4,206.075,200.566,-0.099733
9265,163972.8,206.43,200.922,0.007146
9277,164185.2,206.788,201.28,-0.080973
9289,164397.6,207.145,201.636,-0.092914
9301,164610,207.5026,201.994,-0.05557
9313,164822.4,207.857,202.352,-0.010168
9325,165034.8,208.208,202.71,-0.091012
9337,165247.2,208.556,203.066,-0.036531
9349,165459.6,208.906,203.423,-0.018451
9361,165672,209.26,203.78,-0.023902
9373,165884.4,209.615,204.136,0.128295
9385,166096.8,209.971,204.492,-0.044071
9397,166309.2,210.322,204.848,-0.028477
9409,166521.6,210.678,205.204,-0.042776
9421,166734,211.035,205.56,0.032051
9433,166946.4,211.393,205.916,0.045514
9445,167158.8,211.751,206.273,0.10764
9457,167371.2,212.103,206.63,0.155176
9469,167583.6,212.456,206.988,0.058437
9481,167796,212.808,207.346,0.177553
9493,168008.4,213.155,207.702,0.137299
9505,168220.8,213.507,208.0577,0.112139
9517,168433.2,213.861,208.414,0.081825
9529,168645.6,214.217,208.77,0.160501
9541,168858,214.571,209.125,0.113625
9553,169070.4,214.925,209.48,0.176166
9565,169282.8,215.28,209.836,0.322309
9577,169495.2,215.639,210.192,0.208702
9589,169707.6,215.996,210.549,0.343009
9601,169920,216.347,210.905,0.262389
9613,170132.4,216.696,211.262,0.257584
9625,170344.8,217.05,211.618,0.096035
9637,170557.2,217.405,211.973,0.180598
9649,170769.6,217.76,212.329,0.250551
9661,170982,218.116,212.686,0.18641
9673,171194.4,218.469,213.041,0.123965
9685,171406.8,218.823,213.397,0.088891
9697,171619.2,219.18,213.754,0.18098
9709,171831.6,219.535,214.11,0.131326
9721,172044,219.885,214.467,0.117026
9733,172256.4,220.239,214.823,0.359431
9745,172468.8,220.595,215.18,0.223809
9757,172681.2,220.949,215.537,0.213593
9769,172893.6,221.303,215.893,0.203395
9781,173106,221.657,216.25,0.223031
9793,173318.4,222.01,216.607,0.182073
9805,173530.8,222.36,216.963,0.260441
9817,173743.2,222.714,217.32,0.239283
9829,173955.6,223.07,217.676,0.266448
9841,174168,223.428,218.032,0.196492
9853,174380.4,223.781,218.388,0.461737
9865,174592.8,224.131,218.745,0.41884
9877,174805.2,224.483,219.101,0.142224
9889,175017.6,224.837,219.455,0.267664
9901,175230,225.192,219.812,0.297977
9913,175442.4,225.547,220.167,0.271494
9925,175654.8,225.902,220.523,0.201947
9937,175867.2,226.258,220.879,0.319163
9949,176079.6,226.615,221.235,0.240387
9961,176292,226.969,221.591,0.181498
9973,176504.4,227.323,221.948,0.28296
9985,176716.8,227.678,222.305,0.263971
9997,176929.2,228.031,222.662,0.175451
10009,177141.6,228.385,223.019,0.327063
10021,177354,228.738,223.376,0.372135
10033,177566.4,229.091,223.733,0.502335
10045,177778.8,229.444,224.09,0.446269
10057,177991.2,229.797,224.447,0.258849
10069,178203.6,230.152,224.804,0.175377
10081,178416,230.506,225.161,0.188304
10093,178628.4,230.858,225.518,0.183356
10105,178840.8,231.21,225.874,0.149255
10117,179053.2,231.563,226.23,0.300385
10129,179265.6,231.92,226.586,0.37945
10141,179478,232.276,226.942,0.31255
10153,179690.4,232.629,227.299,0.357633
10165,179902.8,232.984,227.654,0.294868
10177,180115.2,233.339,228.011,0.243083
10189,180327.6,233.694,228.367,0.255872
10201,180540,234.046,228.724,0.407633
10213,180752.4,234.4,229.081,0.667756
10225,180964.8,234.755,229.437,0.630127
10237,181177.2,235.108,229.794,0.470811
10249,181389.6,235.461,230.151,0.486423
10261,181602,235.815,230.506,0.424518
10273,181814.4,236.169,230.863,0.534663
10285,182026.8,236.523,231.219,0.496333
10297,182239.2,236.876,231.575,0.375622
10309,182451.6,237.23,231.931,0.349399
10321,182664,237.585,232.287,0.23806
10333,182876.4,237.941,232.644,0.225215
10345,183088.8,238.293,233,0.282116
10357,183301.2,238.646,233.357,0.453926
10369,183513.6,238.999,233.713,0.406614
10381,183726,239.353,234.068,0.403304
10393,183938.4,239.708,234.424,0.420159
10405,184150.8,240.063,234.779,0.448663
10417,184363.2,240.414,235.135,0.715504
10429,184575.6,240.766,235.49,0.684349
10441,184788,241.12,235.846,0.479831
10453,185000.4,241.475,236.201,0.516102
10465,185212.8,241.831,236.555,0.483095
10477,185425.2,242.187,236.911,0.45276
10489,185637.6,242.544,237.266,0.421906
10501,185850,242.9,237.623,0.484889
10513,186062.4,243.253,237.978,0.589695
10525,186274.8,243.602,238.335,0.536376
10537,186487.2,243.952,238.69,0.434559
10549,186699.6,244.307,239.046,0.46936
10561,186912,244.661,239.401,0.369037
10573,187124.4,245.013,239.756,0.51272
10585,187336.8,245.371,240.111,0.520383
10597,187549.2,245.728,240.466,0.727075
10609,187761.6,246.083,240.822,0.522656
10621,187974,246.439,241.178,0.479911
10633,188186.4,246.795,241.534,0.454503
10645,188398.8,247.146,241.891,0.477595
10657,188611.2,247.496,242.247,0.473195
10669,188823.6,247.846,242.603,0.556701
10681,189036,248.199,242.958,0.605815
10693,189248.4,248.555,243.313,0.603935
10705,189460.8,248.909,243.668,0.481017
10717,189673.2,249.264,244.023,0.553577
10729,189885.6,249.621,244.378,0.56135
10741,190098,249.978,244.733,0.552119
10753,190310.4,250.335,245.089,0.563946
10765,190522.8,250.69,245.447,0.602137
10777,190735.2,251.041,245.8039,0.565061
10789,190947.6,251.39,246.159,0.521772
10801,191160,251.741,246.515,0.56121
10813,191372.4,252.093,246.87,0.610352
10825,191584.8,252.448,247.225,0.474807
10837,191797.2,252.803,247.58,0.504096
10849,192009.6,253.158,247.935,0.446478
10861,192222,253.513,248.291,0.463819
10873,192434.4,253.866,248.646,0.439134
10885,192646.8,254.221,249.001,0.393033
10897,192859.2,254.575,249.356,0.369706
10909,193071.6,254.933,249.711,0.574908
10921,193284,255.29,250.067,0.541252
10933,193496.4,255.642,250.423,0.453145
10945,193708.8,255.994,250.778,0.513544
10957,193921.2,256.346,251.134,0.535697
10969,194133.6,256.7,251.49,0.582284
10981,194346,257.054,251.844,0.479594
10993,194558.4,257.407,252.201,0.554784
11005,194770.8,257.761,252.556,0.474828
11017,194983.2,258.115,252.911,0.578887
11029,195195.6,258.469,253.266,0.53796
11041,195408,258.823,253.62,0.536007
11053,195620.4,259.178,253.976,0.412084
11065,195832.8,259.533,254.331,0.560992
11077,196045.2,259.887,254.686,0.498389
11089,196257.6,260.242,255.042,0.514429
11101,196470,260.596,255.398,0.47659
11113,196682.4,260.949,255.753,0.471241
11125,196894.8,261.303,256.109,0.570959
11137,197107.2,261.657,256.465,0.51813
11149,197319.6,262.012,256.82,0.457764
11161,197532,262.365,257.175,0.463652
11173,197744.4,262.718,257.531,0.593153
11185,197956.8,263.071,257.888,0.55651
11197,198169.2,263.426,258.242,0.513955
11209,198381.6,263.78,258.597,0.546865
11221,198594,264.136,258.953,0.512298
11233,198806.4,264.49,259.308,0.507688
11245,199018.8,264.844,259.664,0.481828
11257,199231.2,265.197,260.019,0.491644
11269,199443.6,265.55,260.375,0.581156
11281,199656,265.903,260.731,0.606013
11293,199868.4,266.259,261.087,0.589326
11305,200080.8,266.613,261.442,0.555415
11317,200293.2,266.968,261.798,0.497843
11329,200505.6,267.322,262.153,0.565042
11341,200718,267.675,262.509,0.557924
11353,200930.4,268.029,262.865,0.555295
11365,201142.8,268.383,263.22,0.547833
11377,201355.2,268.739,263.576,0.529815
11389,201567.6,269.094,263.932,0.571769
11401,201780,269.447,264.289,0.552328
11413,201992.4,269.8,264.644,0.623546
11425,202204.8,270.155,265,0.572654
11437,202417.2,270.509,265.356,0.574677
11449,202629.6,270.863,265.713,0.535289
11461,202842,271.217,266.068,0.513069
11473,203054.4,271.571,266.425,0.513518
11485,203266.8,271.924,266.781,0.532501
11497,203479.2,272.277,267.138,0.509607
11509,203691.6,272.632,267.493,0.479439
11521,203904,272.984,267.849,0.500904
11533,204116.4,273.338,268.206,0.499761
11545,204328.8,273.691,268.562,0.484934
11557,204541.2,274.048,268.917,0.489311
11569,204753.6,274.404,269.272,0.476814
11581,204966,274.757,269.629,0.460956
11593,205178.4,275.11,269.984,0.519273
11605,205390.8,275.463,270.34,0.537104
11617,205603.2,275.815,270.695,0.555982
11629,205815.6,276.17,271.051,0.511778
11641,206028,276.527,271.406,0.530297
11653,206240.4,276.88,271.763,0.515174
11665,206452.8,277.233,272.118,0.540928
11677,206665.2,277.586,272.472,0.548625
11689,206877.6,277.937,272.827,0.530337
11701,207090,278.289,273.182,0.531322
11713,207302.4,278.645,273.536,0.540074
11725,207514.8,279.001,273.891,0.550761
11737,207727.2,279.356,274.246,0.544857
11749,207939.6,279.711,274.6,0.533143
11761,208152,280.068,274.956,0.554393
11773,208364.4,280.421,275.31,0.544448
11785,208576.8,280.776,275.666,0.610922
11797,208789.2,281.131,276.021,0.599906
11809,209001.6,281.482,276.377,0.57606
11821,209214,281.83,276.733,0.548896
11833,209426.4,282.183,277.088,0.5374
11845,209638.8,282.542,277.442,0.562451
11857,209851.2,282.896,277.797,0.573083
11869,210063.6,283.247,278.152,0.611786
11881,210276,283.6,278.506,0.592218
11893,210488.4,283.955,278.861,0.58459
11905,210700.8,284.309,279.214,0.595549
11917,210913.2,284.662,279.568,0.604396
11929,211125.6,285.018,279.921,0.607809
11941,211338,285.375,280.276,0.615245
11953,211550.4,285.732,280.631,0.638071
11965,211762.8,286.087,280.986,0.628175
11977,211975.2,286.436,281.341,0.623883
11989,212187.6,286.789,281.695,0.642311
12001,212400,287.144,282.049,0.645704
12013,212612.4,287.501,282.405,0.654157
12025,212824.8,287.856,282.76,0.650913
12037,213037.2,288.209,283.115,0.661452
12049,213249.6,288.5592,283.47,0.659953
12061,213462,288.911,283.825,0.66595
12073,213674.4,289.266,284.18,0.65069
12085,213886.8,289.623,284.534,0.661565
12097,214099.2,289.974,284.889,0.66338
12109,214311.6,290.327,285.242,0.659976
12121,214524,290.684,285.597,0.681794
12133,214736.4,291.041,285.951,0.684124
12145,214948.8,291.397,286.306,0.693404
12157,215161.2,291.745,286.661,0.691908
12169,215373.6,292.095,287.015,0.693713
12181,215586,292.452,287.369,0.695865
12193,215798.4,292.809,287.723,0.69368
12205,216010.8,293.163,288.076,0.706066
12217,216223.2,293.513,288.43,0.712375
12229,216435.6,293.867,288.784,0.720414
12241,216648,294.225,289.138,0.730179
12253,216860.4,294.579,289.491,0.733359
12265,217072.8,294.931,289.844,0.747615
12277,217285.2,295.287,290.198,0.754594
12289,217497.6,295.642,290.552,0.774887
12301,217710,295.994,290.906,0.792226
12313,217922.4,296.347,291.259,0.816641
12325,218134.8,296.705,291.613,0.820305
12337,218347.2,297.056,291.967,0.817232
12349,218559.6,297.407,292.319,0.820035
12361,218772,297.763,292.67,0.808341
12373,218984.4,298.118,293.022,0.7901
12385,219196.8,298.468,293.373,0.789121
12397,219409.2,298.821,293.723,0.799348
12409,219621.6,299.178,294.071,0.807159
12421,219834,299.532,294.419,0.80928
12433,220046.4,299.886,294.768,0.803136
12445,220258.8,300.243,295.119,0.799061
12457,220471.2,300.597,295.473,0.818905
12469,220683.6,300.951,295.828,0.83392
12481,220896,301.304,296.185,0.836027
12493,221108.4,301.648,296.541,0.833838
12505,221320.8,302.001,296.896,0.835948
12517,221533.2,302.361,297.25,0.841322
12529,221745.6,302.718,297.604,0.832614
12541,221958,303.072,297.958,0.850347
12553,222170.4,303.43,298.313,0.855199
12565,222382.8,303.785,298.668,0.856961
12577,222595.2,304.133,299.023,0.872957
12589,222807.6,304.486,299.377,0.882943
12601,223020,304.844,299.732,0.876645
12613,223232.4,305.198,300.086,0.891422
12625,223444.8,305.549,300.439,0.887527
12637,223657.2,305.905,300.794,0.890995
12649,223869.6,306.263,301.146,0.904218
12661,224082,306.612,301.501,0.910076
12673,224294.4,306.961,301.855,0.918839
12685,224506.8,307.318,302.207,0.926403
12697,224719.2,307.677,302.56,0.918752
12709,224931.6,308.031,302.915,0.928704
12721,225144,308.386,303.269,0.935065
12733,225356.4,308.743,303.623,0.94552
12745,225568.8,309.093,303.978,0.950166
12757,225781.2,309.445,304.333,0.957028
12769,225993.6,309.801,304.687,0.963207
12781,226206,310.157,305.042,0.960515
12793,226418.4,310.506,305.397,0.967714
12805,226630.8,310.86,305.751,0.980192
12817,226843.2,311.217,306.107,0.984316
12829,227055.6,311.57,306.462,0.987928
12841,227268,311.922,306.817,0.97826
12853,227480.4,312.277,307.172,0.978812
12865,227692.8,312.638,307.526,0.977663
12877,227905.2,312.99,307.882,1.014277
12889,228117.6,313.341,308.238,1.022472
12901,228330,313.695,308.594,1.032705
12913,228542.4,314.05,308.95,1.032736
12925,228754.8,314.402,309.305,1.039565
12937,228967.2,314.757,309.6602,1.04826
12949,229179.6,315.113,310.017,1.062722
12961,229392,315.465,310.372,1.068862
12973,229604.4,315.817,310.728,1.077376
12985,229816.8,316.172,311.083,1.077913
12997,230029.2,316.523,311.437,1.082353
13009,230241.6,316.872,311.79,1.082554
13021,230454,317.227,312.144,1.088689
13033,230666.4,317.587,312.497,1.097703
13045,230878.8,317.94,312.852,1.106882
13057,231091.2,318.294,313.206,1.125712
13069,231303.6,318.651,313.56,1.130987
13081,231516,319.005,313.914,1.143201
13093,231728.4,319.22,314.266,1.147967
13105,231940.8,319.199,314.595,1.144462
13117,232153.2,319.171,314.894,1.133883
13129,232365.6,319.156,315.165,1.113357
13141,232578,319.156,315.411,1.10216
13153,232790.4,319.16,315.636,1.096225
13165,233002.8,319.157,315.841,1.090479
13177,233215.2,319.156,316.03,1.090325
13189,233427.6,319.158,316.199,1.082245
13201,233640,319.159,316.357,1.083301
13213,233852.4,319.155,316.499,1.077611
13225,234064.8,319.155,316.629,1.076662
13237,234277.2,319.159,316.748,1.076567
13249,234489.6,319.152,316.857,1.070908
13261,234702,319.147,316.954,1.075052
13273,234914.4,319.15,317.044,1.07667
13285,235126.8,319.152,317.126,1.071202
13297,235339.2,319.145,317.2,1.071144
13309,235551.6,319.145,317.267,1.069909
13321,235764,319.151,317.3272,1.058213
13333,235976.4,319.148,317.383,1.060533
13345,236188.8,319.143,317.432,1.059651
13357,236401.2,319.147,317.477,1.067044
13369,236613.6,319.151,317.518,1.061272
13381,236826,319.147,317.556,1.063606
13393,237038.4,319.15,317.59,1.05936
13405,237250.8,319.153,317.621,1.059842
13417,237463.2,319.155,317.65,1.05847
13429,237675.6,319.154,317.677,1.061318
13441,237888,319.158,317.703,1.067036
13453,238100.4,319.163,317.727,1.060942
13465,238312.8,319.165,317.75,1.064806
13477,238525.2,319.161,317.772,1.072214
13489,238737.6,319.158,317.792,1.071187
13501,238950,319.151,317.81,1.073197
13513,239162.4,319.152,317.826,1.067109
13525,239374.8,319.155,317.842,1.066254
13537,239587.2,319.153,317.856,1.056623
13549,239799.6,319.152,317.868,1.062689
13561,240012,319.15,317.88,1.063355
13573,240224.4,319.15,317.89,1.061997
13585,240436.8,319.149,317.9,1.059289
13597,240649.2,319.131,317.907,1.03954
13609,240861.6,319.125,317.91,1.041394
13621,241074,319.134,317.91,1.038862
13633,241286.4,319.145,317.912,1.029073
13645,241498.8,319.148,317.914,1.037678
13657,241711.2,319.149,317.917,1.026538
13669,241923.6,319.152,317.919,1.03008
13681,242136,319.158,317.923,1.026534
13693,242348.4,319.164,317.927,1.026868
13705,242560.8,319.164,317.932,1.032771
13717,242773.2,319.163,317.938,1.040698
13729,242985.6,319.161,317.943,1.0331
13741,243198,319.158,317.949,1.039677
13753,243410.4,319.155,317.954,1.039842
13765,243622.8,319.155,317.958,1.047263
13777,243835.2,319.154,317.963,1.040172
13789,244047.6,319.157,317.967,1.044725
13801,244260,319.159,317.973,1.040334
13813,244472.4,319.159,317.978,1.041174
13825,244684.8,319.16,317.983,1.041676
13837,244897.2,319.159,317.988,1.047747
13849,245109.6,319.156,317.993,1.042343
13861,245322,319.153,317.998,1.049765
13873,245534.4,319.151,318.002,1.047568
13885,245746.8,319.152,318.005,1.045035
13897,245959.2,319.159,318.01,1.044693
13909,246171.6,319.162,318.015,1.051946
13921,246384,319.164,318.02,1.052616
13933,246596.4,319.166,318.025,1.058012
13945,246808.8,319.166,318.033,1.068131
13957,247021.2,319.165,318.039,1.066776
13969,247233.6,319.164,318.047,1.075207
13981,247446,319.164,318.054,1.066427
13993,247658.4,319.164,318.062,1.073171
14005,247870.8,319.162,318.069,1.072828
14017,248083.2,319.16,318.076,1.078053
14029,248295.6,319.163,318.083,1.076191
14041,248508,319.161,318.09,1.079898
14053,248720.4,319.161,318.097,1.086136
14065,248932.8,319.161,318.105,1.088661
14077,249145.2,319.161,318.111,1.09203
14089,249357.6,319.1607,318.118,1.088481
14101,249570,319.16,318.125,1.080545
14113,249782.4,319.159,318.132,1.075984
14125,249994.8,319.157,318.138,1.071593
14137,250207.2,319.153,318.144,1.061633
14149,250419.6,319.151,318.15,1.063654
14161,250632,319.151,318.154,1.071749
14173,250844.4,319.15,318.158,1.061622
14185,251056.8,319.152,318.162,1.072924
14197,251269.2,319.153,318.166,1.073933
14209,251481.6,319.154,318.17,1.07528
14221,251694,319.15,318.174,1.060936
14233,251906.4,319.148,318.176,1.063971
14245,252118.8,319.149,318.178,1.063294
14257,252331.2,319.149,318.18,1.065992
14269,252543.6,319.149,318.182,1.071558
14281,252756,319.15,318.184,1.081849
14293,252968.4,319.149,318.186,1.085729
14305,253180.8,319.149,318.188,1.090114
14317,253393.2,319.147,318.188,1.086402
14329,253605.6,319.149,318.189,1.0918
14341,253818,319.155,318.19,1.097029
14353,254030.4,319.156,318.192,1.083362
14365,254242.8,319.154,318.194,1.08201
14377,254455.2,319.151,318.1957,1.0977
14389,254667.6,319.148,318.197,1.108835
14401,254880,319.149,318.198,1.120307
14413,255092.4,319.148,318.198,1.126549
14425,255304.8,319.147,318.199,1.123174
14437,255517.2,319.149,318.199,1.118788
14449,255729.6,319.149,318.2,1.117775
14461,255942,319.151,318.199,1.116594
14473,256154.4,319.151,318.2,1.120474
14485,256366.8,319.149,318.201,1.117436
14497,256579.2,319.148,318.201,1.110687
14509,256791.6,319.148,318.202,1.109843
14521,257004,319.15,318.202,1.101576
14533,257216.4,319.153,318.201,1.108156
14545,257428.8,319.151,318.202,1.104613
14557,257641.2,319.15,318.202,1.096682
14569,257853.6,319.15,318.202,1.09432
14581,258066,319.15,318.202,1.088078
14593,258278.4,319.15,318.202,1.089428
14605,258490.8,319.15,318.203,1.088415
14617,258703.2,319.151,318.203,1.090608
14629,258915.6,319.149,318.203,1.088583
14641,259128,319.15,318.202,1.085547
14653,259340.4,319.155,318.203,1.080147
14665,259552.8,319.156,318.204,1.075254
14677,259765.2,319.153,318.205,1.080314
14689,259977.6,319.151,318.206,1.095161
14701,260190,319.151,318.206,1.116757
14713,260402.4,319.15,318.206,1.127049
14725,260614.8,319.153,318.207,1.121311
14737,260827.2,319.152,318.209,1.108488
14749,261039.6,319.15,318.209,1.105957
14761,261252,319.15,318.21,1.11068
14773,261464.4,319.148,318.21,1.11203
14785,261676.8,319.15,318.21,1.118779
14797,261889.2,319.151,318.211,1.125864
14809,262101.6,319.151,318.212,1.11844
14821,262314,319.152,318.212,1.109498
14833,262526.4,319.152,318.213,1.10511
14845,262738.8,319.151,318.213,1.105953
14857,262951.2,319.153,318.215,1.109664
14869,263163.6,319.152,318.215,1.112026
14881,263376,319.152,318.215,1.110338
14893,263588.4,319.153,318.216,1.097515
14905,263800.8,319.15,318.217,1.097683
14917,264013.2,319.147,318.218,1.104937
14929,264225.6,319.146,318.218,1.112361
14941,264438,319.146,318.217,1.114049
14953,264650.4,319.145,318.217,1.119279
14956,264703.5,319.146,318.217,1.120629