File: z_unorganized_archive/i_data/46C/H2O-NH3_4.5386g.csv
H2O-NH3 6wt% Specific Heat - Large HF 08Nov22,,,,
Creation Date : 11/11/2022 2:20:15 PM,,,,
User : admin,,,,
,,,,
HeatFlow :,,,,
 Initial Mass : 4538.6 mg,,,,
 Molar Mass : 17 g/mol,,,,
,,,,
Index,Time(s),Furnace Temperature(K),Sample Temperature(K),HeatFlow(mW)
1,0,318.81,318.221,-1769.14
13,212.4,318.264,318.195,-992.122
25,424.8,317.879,318.163,-492.488
37,637.2,317.555,318.114,-243.781
49,849.6,317.264,318.047,-119.484
61,1062,316.983,317.963,-57.008
73,1274.4,316.685,317.863,-25.1793
85,1486.8,316.341,317.745,-8.499239
97,1699.2,315.927,317.605,0.731383
109,1911.6,315.42,317.435,6.398913
121,2124,314.781,317.232,10.531
133,2336.4,313.945,316.983,14.1671
145,2548.8,312.881,316.67,18.0789
157,2761.2,311.59,316.282,22.7744
169,2973.6,310.105,315.804,28.5508
181,3186,308.482,315.229,35.3714
193,3398.4,306.775,314.557,43.0501
205,3610.8,305.021,313.792,51.2624
217,3823.2,303.247,312.939,59.6757
229,4035.6,301.464,312.005,67.9702
241,4248,299.689,310.998,75.9214
253,4460.4,297.927,309.926,83.373
265,4672.8,296.193,308.795,90.2069
277,4885.2,294.496,307.616,96.3436
289,5097.6,292.838,306.396,101.756
301,5310,291.208,305.144,106.436
313,5522.4,289.601,303.863,110.448
325,5734.8,288.0188,302.559,113.825
337,5947.2,286.458,301.234,116.668
349,6159.6,284.925,299.893,119.051
361,6372,283.413,298.54,120.981
373,6584.4,281.922,297.177,122.5
385,6796.8,280.454,295.808,123.66
397,7009.2,279.002,294.438,124.524
409,7221.6,277.57,293.069,124.968
421,7434,276.156,291.712,124.718
433,7646.4,274.764,290.349,124.738
445,7858.8,273.3915,288.98,125.012
457,8071.2,272.037,287.612,125.218
469,8283.6,270.697,286.249,125.304
481,8496,269.372,284.89,125.169
493,8708.4,268.06,283.538,124.852
505,8920.8,266.765,282.192,124.473
517,9133.2,265.486,280.856,123.935
529,9345.6,264.212,279.527,123.326
541,9558,262.946,278.207,122.575
553,9770.4,261.689,276.894,121.892
565,9982.8,260.442,275.59,121.127
577,10195.2,259.213,274.295,120.399
589,10407.6,257.991,273.008,119.549
601,10620,256.78,271.73,118.759
613,10832.4,255.58,270.461,117.973
625,11044.8,254.389,269.202,117.105
637,11257.2,253.209,267.952,116.465
649,11469.6,252.043,266.711,115.879
661,11682,250.886,265.48,114.889
673,11894.4,249.743,264.257,114.166
685,12106.8,248.612,263.045,113.189
697,12319.2,247.486,261.842,112.456
709,12531.6,246.37,260.649,111.432
721,12744,245.264,259.465,110.515
733,12956.4,244.162,258.29,109.859
745,13168.8,243.071,257.125,109.031
757,13381.2,241.994,255.968,108.458
769,13593.6,240.937,254.821,107.479
781,13806,239.893,253.685,106.525
793,14018.4,238.861,252.576,1086.12
805,14230.8,237.833,251.498,1046.3
817,14443.2,236.808,250.416,820.683
829,14655.6,235.793,249.332,583.621
841,14868,234.793,248.25,405.976
853,15080.4,233.8058,247.171,289.966
865,15292.8,232.828,246.1,217.947
877,15505.2,231.852,245.036,173.785
889,15717.6,230.874,243.981,146.555
901,15930,229.902,242.933,128.935
913,16142.4,228.941,241.894,116.918
925,16354.8,227.991,240.863,107.989
937,16567.2,227.045,239.84,101.542
949,16779.6,226.099,238.826,95.83801
961,16992,225.162,237.818,91.7602
973,17204.4,224.233,236.818,88.515
985,17416.8,223.308,235.827,84.2048
997,17629.2,222.395,234.841,80.6548
1009,17841.6,221.493,233.865,77.7234
1021,18054,220.603,232.895,75.3579
1033,18266.4,219.734,231.936,72.57
1045,18478.8,218.889,230.985,70.1935
1057,18691.2,218.058,230.045,68.2298
1069,18903.6,217.232,229.116,66.069
1081,19116,216.411,228.196,64.0167
1093,19328.4,215.588,227.284,62.793
1105,19540.8,214.766,226.382,60.866
1117,19753.2,213.947,225.486,59.0471
1129,19965.6,213.133,224.6,57.3675
1141,20178,212.327,223.719,55.7987
1153,20390.4,211.524,222.847,54.5203
1165,20602.8,210.727,221.981,53.01894
1177,20815.2,209.933,221.122,51.714
1189,21027.6,209.147,220.27,50.712
1201,21240,208.369,219.423,49.9506
1213,21452.4,207.598,218.585,48.57444
1225,21664.8,206.835,217.753,47.8616
1237,21877.2,206.076,216.928,47.18922
1249,22089.6,205.32,216.109,45.8034
1261,22302,204.569,215.298,44.65272
1273,22514.4,203.817,214.491,44.2446
1285,22726.8,203.07,213.688,43.1256
1297,22939.2,202.327,212.892,42.6179
1309,23151.6,201.591,212.101,41.5889
1321,23364,200.862,211.316,41.01288
1333,23576.4,200.139,210.537,40.1961
1345,23788.8,199.42,209.762,39.4101
1357,24001.2,198.704,208.994,39.1234
1369,24213.6,197.99,208.232,38.2921
1381,24426,197.282,207.472,37.2555
1393,24638.4,196.581,206.719,36.699
1405,24850.8,195.887,205.971,36.2897
1417,25063.2,195.205,205.228,35.7209
1429,25275.6,194.535,204.492,35.3633
1441,25488,193.875,203.762,34.38319
1453,25700.4,193.222,203.038,34.1242
1465,25912.8,192.57,202.321,33.2383
1477,26125.2,191.915,201.607,33.061
1489,26337.6,191.255,200.9,32.6283
1501,26550,190.598,200.197,32.3297
1513,26762.4,189.951,199.499,31.9943
1525,26974.8,189.314,198.807,31.8349
1537,27187.2,188.677,198.118,30.9776
1549,27399.6,188.035,197.434,30.5076
1561,27612,187.394,196.754,30.4391
1573,27824.4,186.761,196.078,29.9416
1585,28036.8,186.133,195.407,29.4032
1597,28249.2,185.504,194.74,29.0068
1609,28461.6,184.884,194.075,29.0135
1621,28674,184.273,193.416,28.8119
1633,28886.4,183.662,192.761,28.4106
1645,29098.8,183.05,192.109,27.8447
1657,29311.2,182.443,191.462,27.1038
1669,29523.6,181.85,190.818,26.8231
1681,29736,181.269,190.18,26.68102
1693,29948.4,180.7,189.547,26.1153
1705,30160.8,180.139,188.919,25.9791
1717,30373.2,179.585,188.297,25.6197
1729,30585.6,179.037,187.68,25.5267
1741,30798,178.494,187.07,25.0103
1753,31010.4,177.955,186.466,24.765
1765,31222.8,177.42,185.866,24.82959
1777,31435.2,176.891,185.272,24.4138
1789,31647.6,176.364,184.683,23.7266
1801,31860,175.842,184.099,23.4584
1813,32072.4,175.323,183.521,22.5454
1825,32284.8,174.807,182.947,22.5552
1837,32497.2,174.294,182.378,22.8049
1849,32709.6,173.784,181.813,22.1578
1861,32922,173.277,181.253,22.13076
1873,33134.4,172.772,180.699,21.6672
1885,33346.8,172.269,180.147,21.3811
1897,33559.2,171.771,179.6,21.046
1909,33771.6,171.277,179.057,21.1912
1921,33984,170.787,178.517,20.8547
1933,34196.4,170.301,177.982,20.5644
1945,34408.8,169.815,177.45,19.9794
1957,34621.2,169.333,176.923,19.4275
1969,34833.6,168.854,176.399,19.31482
1981,35046,168.381,175.88,19.2621
1993,35258.4,167.907,175.363,19.0798
2005,35470.8,167.437,174.85,18.9077
2017,35683.2,166.971,174.341,18.7275
2029,35895.6,166.508,173.835,18.51826
2041,36108,166.048,173.333,18.6602
2053,36320.4,165.591,172.835,18.4835
2065,36532.8,165.138,172.339,18.2837
2077,36745.2,164.688,171.847,18.0262
2089,36957.6,164.239,171.358,17.8643
2101,37170,163.794,170.873,18.1012
2113,37382.4,163.352,170.391,17.8231
2125,37594.8,162.914,169.912,17.4236
2137,37807.2,162.481,169.437,17.205
2149,38019.6,162.053,168.964,17.2047
2161,38232,161.627,168.496,16.7029
2173,38444.4,161.206,168.031,16.5445
2185,38656.8,160.788,167.569,16.4517
2197,38869.2,160.375,167.11,16.5308
2209,39081.6,159.966,166.656,16.6947
2221,39294,159.559,166.205,16.0131
2233,39506.4,159.157,165.757,15.7586
2245,39718.8,158.759,165.313,15.6295
2257,39931.2,158.365,164.872,15.7389
2269,40143.6,157.977,164.436,15.4067
2281,40356,157.594,164.003,15.2685
2293,40568.4,157.215,163.573,15.2313
2305,40780.8,156.839,163.147,15.10036
2317,40993.2,156.468,162.725,14.6057
2329,41205.6,156.101,162.307,14.5027
2341,41418,155.737,161.893,14.36531
2353,41630.4,155.375,161.482,14.32055
2365,41842.8,155.012,161.076,14.264
2377,42055.2,154.649,160.672,14.4192
2389,42267.6,154.286,160.271,13.971
2401,42480,153.925,159.872,13.5003
2413,42692.4,153.564,159.477,13.6359
2425,42904.8,153.202,159.084,13.7692
2437,43117.2,152.846,158.694,13.2463
2449,43329.6,152.491,158.306,13.2275
2461,43542,152.14,157.921,13.2266
2473,43754.4,151.789,157.538,12.8168
2485,43966.8,151.436,157.158,12.58845
2497,44179.2,151.086,156.779,12.7034
2509,44391.6,150.739,156.403,12.5615
2521,44604,150.394,156.029,12.6132
2533,44816.4,150.053,155.658,12.6199
2545,45028.8,149.713,155.289,12.3558
2557,45241.2,149.376,154.922,12.3932
2569,45453.6,149.042,154.557,12.3042
2581,45666,148.711,154.195,11.9554
2593,45878.4,148.382,153.834,11.8665
2605,46090.8,148.055,153.476,11.942
2617,46303.2,147.731,153.121,12.2543
2629,46515.6,147.409,152.768,11.878
2641,46728,147.092,152.417,11.4234
2653,46940.4,146.779,152.069,11.6378
2665,47152.8,146.468,151.724,11.3158
2677,47365.2,146.1574,151.381,11.3141
2689,47577.6,145.848,151.04,11.2367
2701,47790,145.542,150.701,11.2854
2713,48002.4,145.237,150.364,11.1146
2725,48214.8,144.936,150.03,11.1639
2737,48427.2,144.635,149.699,10.9406
2749,48639.6,144.336,149.37,10.9435
2761,48852,144.041,149.043,10.7724
2773,49064.4,143.75,148.718,10.62076
2785,49276.8,143.46,148.397,10.5441
2797,49489.2,143.172,148.076,10.2488
2809,49701.6,142.887,147.758,10.1548
2821,49914,142.604,147.442,10.0612
2833,50126.4,142.322,147.129,9.855505
2845,50338.8,142.043,146.819,9.88774
2857,50551.2,141.768,146.511,9.843759
2869,50763.6,141.493,146.205,9.874912
2881,50976,141.221,145.901,9.849909
2893,51188.4,140.948,145.599,9.501405
2905,51400.8,140.679,145.299,9.497018
2917,51613.2,140.41,145.001,9.188598
2929,51825.6,140.141,144.705,9.44134
2941,52038,139.872,144.412,9.458604
2953,52250.4,139.604,144.12,9.32156
2965,52462.8,139.337,143.83,9.307949
2977,52675.2,139.072,143.541,9.264809
2989,52887.6,138.808,143.254,9.044941
3001,53100,138.545,142.969,9.046211
3013,53312.4,138.283,142.685,8.869376
3025,53524.8,138.024,142.403,8.615696
3037,53737.2,137.769,142.123,8.687468
3049,53949.6,137.516,141.845,8.590046
3061,54162,137.265,141.567,8.693662
3073,54374.4,137.016,141.292,8.66281
3085,54586.8,136.769,141.019,8.461216
3097,54799.2,136.52,140.748,8.296814
3109,55011.6,136.272,140.478,8.195777
3121,55224,136.025,140.21,8.172343
3133,55436.4,135.781,139.943,8.121161
3145,55648.8,135.538,139.677,7.917424
3157,55861.2,135.298,139.415,7.794354
3169,56073.6,135.06,139.152,8.145698
3181,56286,134.823,138.892,7.984871
3193,56498.4,134.589,138.634,7.89689
3205,56710.8,134.356,138.376,7.792263
3217,56923.2,134.124,138.121,7.521597
3229,57135.6,133.893,137.867,7.60802
3241,57348,133.663,137.615,7.480674
3253,57560.4,133.431,137.364,7.516379
3265,57772.8,133.196,137.115,7.499686
3277,57985.2,132.964,136.867,7.471087
3289,58197.6,132.735,136.619,7.532065
3301,58410,132.509,136.373,7.324594
3313,58622.4,132.285,136.129,7.227245
3325,58834.8,132.067,135.887,7.303819
3337,59047.2,131.846,135.644,7.115244
3349,59259.6,131.622,135.405,7.073452
3361,59472,131.398,135.164,6.871539
3373,59684.4,131.175,134.927,6.961701
3385,59896.8,130.954,134.69,6.840318
3397,60109.2,130.734,134.454,6.967895
3409,60321.6,130.516,134.219,6.832023
3421,60534,130.298,133.986,6.678682
3433,60746.4,130.082,133.754,6.721222
3445,60958.8,129.867,133.522,6.64354
3457,61171.2,129.655,133.292,6.559426
3469,61383.6,129.444,133.063,6.583408
3481,61596,129.237,132.8357,6.537594
3493,61808.4,129.029,132.61,6.497533
3505,62020.8,128.821,132.384,6.340562
3517,62233.2,128.613,132.16,6.380403
3529,62445.6,128.404,131.937,6.295109
3541,62658,128.198,131.715,6.231193
3553,62870.4,127.995,131.495,6.097564
3565,63082.8,127.791,131.275,6.143957
3577,63295.2,127.588,131.057,6.176332
3589,63507.6,127.385,130.84,6.134883
3601,63720,127.185,130.623,6.018028
3613,63932.4,126.987,130.408,6.026327
3625,64144.8,126.794,130.193,5.991032
3637,64357.2,126.603,129.982,5.927994
3649,64569.6,126.408,129.77,5.850035
3661,64782,126.213,129.559,5.77353
3673,64994.4,126.022,129.35,5.877557
3685,65206.8,125.838,129.142,5.792025
3697,65419.2,125.657,128.937,5.764977
3709,65631.6,125.479,128.732,5.494839
3721,65844,125.306,128.53,5.46479
3733,66056.4,125.136,128.33,5.426073
3745,66268.8,124.963,128.131,5.360197
3757,66481.2,124.788,127.934,5.366748
3769,66693.6,124.615,127.739,5.380174
3781,66906,124.441,127.545,5.254913
3793,67118.4,124.269,127.351,5.339146
3805,67330.8,124.1,127.16,5.204596
3817,67543.2,123.933,126.97,5.153308
3829,67755.6,123.763,126.782,5.065414
3841,67968,123.595,126.595,5.117352
3853,68180.4,123.427,126.409,5.002166
3865,68392.8,123.26,126.224,4.965067
3877,68605.2,123.098,126.04,4.847137
3889,68817.6,122.937,125.859,4.743983
3901,69030,122.778,125.678,4.73969
3913,69242.4,122.622,125.499,4.712661
3925,69454.8,122.469,125.322,4.724208
3937,69667.2,122.32,125.146,4.628768
3949,69879.6,122.175,124.972,4.669431
3961,70092,122.033,124.801,4.544033
3973,70304.4,121.892,124.63,4.5012
3985,70516.8,121.753,124.462,4.384576
3997,70729.2,121.616,124.297,4.41732
4009,70941.6,121.478,124.132,4.32772
4021,71154,121.339,123.968,4.233089
4033,71366.4,121.2,123.808,4.062866
4045,71578.8,121.059,123.648,4.090164
4057,71791.2,120.919,123.489,4.053373
4069,72003.6,120.778,123.332,4.057939
4081,72216,120.639,123.176,3.945333
4093,72428.4,120.501,123.02,3.833929
4105,72640.8,120.366,122.866,3.944764
4117,72853.2,120.23,122.713,3.847625
4129,73065.6,120.093,122.562,3.854171
4141,73278,119.956,122.411,3.774425
4153,73490.4,119.82,122.262,3.812608
4165,73702.8,119.685,122.112,3.760119
4177,73915.2,119.551,121.965,3.750481
4189,74127.6,119.419,121.817,3.677436
4201,74340,119.289,121.671,3.729964
4213,74552.4,119.161,121.526,3.65727
4225,74764.8,119.033,121.383,3.543586
4237,74977.2,118.9018,121.24,3.469123
4249,75189.6,118.772,121.098,3.51436
4261,75402,118.643,120.956,3.504596
4273,75614.4,118.518,120.816,3.403567
4285,75826.8,118.394,120.676,3.371113
4297,76039.2,118.273,120.538,3.346945
4309,76251.6,118.155,120.4,3.287134
4321,76464,118.04,120.265,3.589854
4333,76676.4,117.924,120.13,3.364533
4345,76888.8,117.809,119.997,3.280397
4357,77101.2,117.695,119.865,3.231527
4369,77313.6,117.582,119.734,3.172652
4381,77526,117.47,119.604,3.109899
4393,77738.4,117.363,119.476,3.065349
4405,77950.8,117.259,119.348,3.012842
4417,78163.2,117.159,119.223,2.962527
4429,78375.6,117.059,119.099,2.93663
4441,78588,116.959,118.977,2.908029
4453,78800.4,116.858,118.857,2.842517
4465,79012.8,116.756,118.737,2.788585
4477,79225.2,116.657,118.619,2.735717
4489,79437.6,116.556,118.501,2.683642
4501,79650,116.451,118.385,2.65902
4513,79862.4,116.346,118.269,2.651974
4525,80074.8,116.242,118.155,2.603483
4537,80287.2,116.142,118.041,2.582236
4549,80499.6,116.044,117.928,2.565366
4561,80712,115.951,117.815,2.537854
4573,80924.4,115.86,117.705,2.504379
4585,81136.8,115.77,117.595,2.480574
4597,81349.2,115.684,117.487,2.424844
4609,81561.6,115.599,117.38,2.404733
4621,81774,115.517,117.274,2.344695
4633,81986.4,115.434,117.171,2.308185
4645,82198.8,115.348,117.068,2.267771
4657,82411.2,115.26,116.966,2.240318
4669,82623.6,115.176,116.866,2.19858
4681,82836,115.095,116.767,2.159433
4693,83048.4,115.016,116.669,2.14129
4705,83260.8,114.94,116.571,2.106787
4717,83473.2,114.867,116.477,2.084673
4729,83685.6,114.797,116.383,2.033984
4741,83898,114.728,116.29,1.991546
4753,84110.4,114.655,116.199,1.956465
4765,84322.8,114.582,116.109,1.914483
4777,84535.2,114.508,116.021,1.890611
4789,84747.6,114.436,115.933,1.846723
4801,84960,114.362,115.845,1.84067
4813,85172.4,114.292,115.76,1.801746
4825,85384.8,114.222,115.675,1.78129
4837,85597.2,114.154,115.591,1.744958
4849,85809.6,114.087,115.508,1.711556
4861,86022,114.021,115.426,1.670338
4873,86234.4,113.954,115.345,1.636538
4885,86446.8,113.889,115.265,1.607193
4897,86659.2,113.823,115.186,1.568203
4909,86871.6,113.759,115.107,1.546564
4921,87084,113.696,115.031,1.508678
4933,87296.4,113.631,114.954,1.490873
4945,87508.8,113.565,114.879,1.450495
4957,87721.2,113.499,114.804,1.437731
4969,87933.6,113.437,114.729,1.406305
4981,88146,113.376,114.655,1.383565
4993,88358.4,113.317,114.582,1.374027
5005,88570.8,113.26,114.511,1.329842
5017,88783.2,113.2,114.439,1.322673
5029,88995.6,113.141,114.37,1.293475
5041,89208,113.084,114.299,1.276317
5053,89420.4,113.025,114.231,1.248869
5065,89632.8,112.967,114.163,1.224713
5077,89845.2,112.909,114.095,1.215326
5089,90057.6,112.851,114.029,1.186583
5101,90270,112.794,113.962,1.184119
5113,90482.4,112.738,113.897,1.15502
5125,90694.8,112.682,113.831,1.150104
5137,90907.2,112.626,113.767,1.128826
5149,91119.6,112.573,113.703,1.117524
5161,91332,112.518,113.64,1.101054
5173,91544.4,112.462,113.577,1.083357
5185,91756.8,112.406,113.515,1.087776
5197,91969.2,112.353,113.453,1.065803
5209,92181.6,112.303,113.392,1.064438
5221,92394,112.25,113.332,1.039994
5233,92606.4,112.1966,113.271,1.019788
5245,92818.8,112.144,113.212,1.024771
5257,93031.2,112.085,113.152,0.999059
5269,93243.6,112.012,113.092,0.995836
5281,93456,111.932,113.033,1.019078
5293,93668.4,111.856,112.969,1.022581
5305,93880.8,111.787,112.906,1.041616
5317,94093.2,111.727,112.844,1.041162
5329,94305.6,111.67,112.782,1.04803
5341,94518,111.616,112.72,1.048796
5353,94730.4,111.564,112.658,1.027594
5365,94942.8,111.51,112.597,1.023463
5377,95155.2,111.454,112.537,1.005891
5389,95367.6,111.399,112.476,0.998381
5401,95580,111.347,112.416,0.989947
5413,95792.4,111.298,112.358,0.965595
5425,96004.8,111.246,112.299,0.968754
5437,96217.2,111.195,112.241,0.943451
5449,96429.6,111.146,112.183,0.938029
5461,96642,111.104,112.126,0.918809
5473,96854.4,111.064,112.071,0.894052
5485,97066.8,111.026,112.016,0.881532
5497,97279.2,110.99,111.962,0.838026
5509,97491.6,110.956,111.91,0.826377
5521,97704,110.919,111.858,0.798763
5533,97916.4,110.882,111.808,0.757609
5545,98128.8,110.835,111.758,0.735467
5557,98341.2,110.77,111.708,0.744028
5569,98553.6,110.699,111.656,0.744
5581,98766,110.629,111.604,0.77041
5593,98978.4,110.567,111.55,0.795312
5605,99190.8,110.514,111.495,0.799937
5617,99403.2,110.456,111.441,0.803637
5629,99615.6,110.391,111.387,0.824583
5641,99828,110.326,111.332,0.82214
5653,100040.4,110.268,111.276,0.834183
5665,100252.8,110.221,111.221,0.844692
5677,100465.2,110.18,111.166,0.831149
5689,100677.6,110.144,111.112,0.831782
5701,100890,110.111,111.06,0.79599
5713,101102.4,110.079,111.009,0.776216
5725,101314.8,110.043,110.959,0.745611
5737,101527.2,110.005,110.91,0.714981
5749,101739.6,109.968,110.862,0.689267
5761,101952,109.919,110.813,0.683019
5773,102164.4,109.857,110.7647,0.675219
5785,102376.8,109.79,110.715,0.681033
5797,102589.2,109.73,110.664,0.690573
5809,102801.6,109.68,110.614,0.720552
5821,103014,109.631,110.563,0.712769
5833,103226.4,109.57,110.513,0.713343
5845,103438.8,109.503,110.46,0.735936
5857,103651.2,109.437,110.408,0.749865
5869,103863.6,109.382,110.354,0.76102
5881,104076,109.328,110.301,0.764419
5893,104288.4,109.266,110.247,0.780869
5905,104500.8,109.203,110.193,0.785218
5917,104713.2,109.147,110.138,0.79641
5929,104925.6,109.096,110.085,0.796103
5941,105138,109.049,110.031,0.789579
5953,105350.4,109.008,109.976,0.795183
5965,105562.8,108.97,109.924,0.769971
5977,105775.2,108.944,109.872,0.75314
5989,105987.6,109.247,109.828,0.642512
6001,106200,109.854,109.812,0.28158
6013,106412.4,110.402,109.832,-0.321092
6025,106624.8,110.831,109.881,-1.003089
6037,106837.2,111.195,109.951,-1.619604
6049,107049.6,111.545,110.039,-2.14158
6061,107262,111.894,110.144,-2.604146
6073,107474.4,112.245,110.264,-3.016607
6085,107686.8,112.601,110.398,-3.415885
6097,107899.2,112.957,110.547,-3.768434
6109,108111.6,113.309,110.708,-4.111487
6121,108324,113.663,110.882,-4.433539
6133,108536.4,114.023,111.067,-4.733708
6145,108748.8,114.381,111.263,-5.012341
6157,108961.2,114.731,111.47,-5.303334
6169,109173.6,115.079,111.685,-5.550086
6181,109386,115.433,111.909,-5.776695
6193,109598.4,115.793,112.14,-5.996787
6205,109810.8,116.154,112.38,-6.223417
6217,110023.2,116.507,112.627,-6.437022
6229,110235.6,116.857,112.88,-6.613384
6241,110448,117.212,113.14,-6.792137
6253,110660.4,117.572,113.405,-6.977562
6265,110872.8,117.931,113.676,-7.142027
6277,111085.2,118.286,113.953,-7.316452
6289,111297.6,118.637,114.235,-7.483938
6301,111510,118.984,114.521,-7.627077
6313,111722.4,119.332,114.811,-7.749662
6325,111934.8,119.688,115.104,-7.888961
6337,112147.2,120.049,115.4,-8.001208
6349,112359.6,120.409,115.701,-8.146821
6361,112572,120.765,116.006,-8.272548
6373,112784.4,121.119,116.313,-8.418476
6385,112996.8,121.471,116.623,-8.549717
6397,113209.2,121.824,116.936,-8.690302
6409,113421.6,122.177,117.253,-8.823048
6421,113634,122.531,117.571,-8.964902
6433,113846.4,122.884,117.89,-9.113431
6445,114058.8,123.239,118.212,-9.260041
6457,114271.2,123.594,118.536,-9.442314
6469,114483.6,123.948,118.861,-9.610535
6481,114696,124.301,119.188,-9.822038
6493,114908.4,124.655,119.517,-10.02
6505,115120.8,125.008,119.847,-10.2494
6517,115333.2,125.363,120.177,-10.4742
6529,115545.6,125.715,120.51,-10.6951
6541,115758,126.071,120.844,-10.9023
6553,115970.4,126.425,121.178,-11.0589
6565,116182.8,126.78,121.513,-11.1607
6577,116395.2,127.133,121.851,-11.1535
6589,116607.6,127.487,122.188,-11.0892
6601,116820,127.84,122.526,-10.9578
6613,117032.4,128.197,122.865,-10.8492
6625,117244.8,128.549,123.204,-10.76491
6637,117457.2,128.903,123.546,-10.7285
6649,117669.6,129.258,123.887,-10.7187
6661,117882,129.613,124.229,-10.7369
6673,118094.4,129.967,124.572,-10.7519
6685,118306.8,130.321,124.915,-10.77474
6697,118519.2,130.675,125.259,-10.81347
6709,118731.6,131.028,125.602,-10.8252
6721,118944,131.382,125.946,-10.8623
6733,119156.4,131.735,126.291,-10.8747
6745,119368.8,132.089,126.637,-10.92297
6757,119581.2,132.444,126.983,-10.9319
6769,119793.6,132.798,127.329,-10.973
6781,120006,133.153,127.675,-10.999
6793,120218.4,133.507,128.021,-11.0272
6805,120430.8,133.861,128.368,-11.0549
6817,120643.2,134.214,128.715,-11.074
6829,120855.6,134.568,129.062,-11.1118
6841,121068,134.922,129.411,-11.12339
6853,121280.4,135.274,129.758,-11.1498
6865,121492.8,135.629,130.106,-11.1632
6877,121705.2,135.984,130.454,-11.1897
6889,121917.6,136.338,130.802,-11.1964
6901,122130,136.693,131.151,-11.2276
6913,122342.4,137.047,131.499,-11.2359
6925,122554.8,137.402,131.848,-11.2672
6937,122767.2,137.755,132.197,-11.2856
6949,122979.6,138.11,132.546,-11.3134
6961,123192,138.463,132.896,-11.3354
6973,123404.4,138.818,133.246,-11.348
6985,123616.8,139.172,133.595,-11.3772
6997,123829.2,139.525,133.945,-11.3804
7009,124041.6,139.879,134.295,-11.41024
7021,124254,140.233,134.645,-11.4134
7033,124466.4,140.588,134.995,-11.444
7045,124678.8,140.941,135.345,-11.4425
7057,124891.2,141.295,135.696,-11.4739
7069,125103.6,141.649,136.047,-11.4822
7081,125316,142.003,136.397,-11.5073
7093,125528.4,142.357,136.748,-11.5202
7105,125740.8,142.711,137.098,-11.5452
7117,125953.2,143.066,137.448,-11.55547
7129,126165.6,143.419,137.799,-11.5744
7141,126378,143.774,138.149,-11.5933
7153,126590.4,144.127,138.501,-11.60191
7165,126802.8,144.479,138.852,-11.6272
7177,127015.2,144.834,139.203,-11.6291
7189,127227.6,145.189,139.554,-11.65364
7201,127440,145.543,139.905,-11.6605
7213,127652.4,145.897,140.256,-11.6839
7225,127864.8,146.251,140.607,-11.6912
7237,128077.2,146.605,140.959,-11.7153
7249,128289.6,146.959,141.31,-11.72346
7261,128502,147.313,141.661,-11.7429
7273,128714.4,147.667,142.013,-11.7492
7285,128926.8,148.02,142.366,-11.7591
7297,129139.2,148.374,142.716,-11.7576
7309,129351.6,148.728,143.069,-11.7573
7321,129564,149.083,143.421,-11.7468
7333,129776.4,149.437,143.772,-11.7264
7345,129988.8,149.79,144.125,-11.7012
7357,130201.2,150.146,144.476,-11.6445
7369,130413.6,150.5,144.83,-11.5864
7381,130626,150.854,145.183,-11.48549
7393,130838.4,151.208,145.535,-11.3639
7405,131050.8,151.562,145.888,-11.1846
7417,131263.2,151.915,146.241,-10.9687
7429,131475.6,152.269,146.594,-10.6628
7441,131688,152.622,146.947,-10.3027
7453,131900.4,152.977,147.3,-9.828505
7465,132112.8,153.332,147.653,-9.233883
7477,132325.2,153.684,148.007,-8.491138
7489,132537.6,154.038,148.36,-7.557912
7501,132750,154.392,148.713,-6.381755
7513,132962.4,154.747,149.067,-4.902104
7525,133174.8,155.101,149.421,-3.088911
7537,133387.2,155.456,149.775,-0.841705
7549,133599.6,155.811,150.128,1.838867
7561,133812,156.163,150.482,5.010045
7573,134024.4,156.515,150.837,8.558219
7585,134236.8,156.866,151.191,12.4022
7597,134449.2,157.215,151.546,16.217
7609,134661.6,157.569,151.898,19.5622
7621,134874,157.927,152.252,21.8757
7633,135086.4,158.286,152.605,22.6907
7645,135298.8,158.646,152.959,21.6937
7657,135511.2,158.999,153.313,18.9298
7669,135723.6,159.351,153.667,14.6887
7681,135936,159.709,154.022,9.562966
7693,136148.4,160.068,154.376,4.310124
7705,136360.8,160.421,154.731,-0.288973
7717,136573.2,160.771,155.086,-3.841308
7729,136785.6,161.123,155.44,-6.270571
7741,136998,161.475,155.795,-7.819305
7753,137210.4,161.829,156.149,-8.746897
7765,137422.8,162.181,156.503,-9.321125
7777,137635.2,162.535,156.857,-9.716043
7789,137847.6,162.887,157.212,-10.0093
7801,138060,163.24,157.566,-10.2312
7813,138272.4,163.592,157.921,-10.3999
7825,138484.8,163.946,158.274,-10.5839
7837,138697.2,164.3,158.626,-10.7491
7849,138909.6,164.655,158.98,-10.8497
7861,139122,165.006,159.334,-10.911
7873,139334.4,165.36,159.686,-10.9891
7885,139546.8,165.713,160.039,-11.0506
7897,139759.2,166.067,160.392,-11.081
7909,139971.6,166.426,160.745,-11.0939
7921,140184,166.784,161.097,-11.1462
7933,140396.4,167.143,161.452,-11.1677
7945,140608.8,167.499,161.805,-11.2134
7957,140821.2,167.849,162.159,-11.2372
7969,141033.6,168.202,162.513,-11.2343
7981,141246,168.558,162.868,-11.2643
7993,141458.4,168.916,163.223,-11.2928
8005,141670.8,169.269,163.579,-11.27759
8017,141883.2,169.6173,163.934,-11.3028
8029,142095.6,169.97,164.288,-11.328
8041,142308,170.325,164.643,-11.3591
8053,142520.4,170.681,164.998,-11.3464
8065,142732.8,171.032,165.353,-11.4006
8077,142945.2,171.384,165.707,-11.4555
8089,143157.6,171.739,166.062,-11.4662
8101,143370,172.098,166.418,-11.4895
8113,143582.4,172.454,166.774,-11.5084
8125,143794.8,172.805,167.13,-11.5728
8137,144007.2,173.158,167.486,-11.63107
8149,144219.6,173.515,167.841,-11.6997
8161,144432,173.869,168.197,-11.7623
8173,144644.4,174.22,168.554,-11.9108
8185,144856.8,174.573,168.909,-12.0481
8197,145069.2,174.927,169.265,-12.3695
8209,145281.6,175.282,169.622,-12.9498
8221,145494,175.635,169.977,-13.8929
8233,145706.4,175.988,170.334,-15.318
8245,145918.8,176.342,170.689,-18.0067
8257,146131.2,176.696,171.044,-16.2298
8269,146343.6,177.048,171.401,-6.79782
8281,146556,177.402,171.756,-5.300105
8293,146768.4,177.756,172.112,-8.935586
8305,146980.8,178.11,172.468,-10.723
8317,147193.2,178.465,172.824,-11.3407
8329,147405.6,178.819,173.18,-11.7474
8341,147618,179.173,173.536,-11.9289
8353,147830.4,179.528,173.891,-11.53969
8365,148042.8,179.882,174.246,-11.9486
8377,148255.2,180.237,174.602,-12.1859
8389,148467.6,180.59,174.957,-12.39054
8401,148680,180.943,175.313,-13.01246
8413,148892.4,181.297,175.668,-15.3472
8425,149104.8,181.652,176.024,-27.20703
8437,149317.2,182.005,176.378,-59.1257
8449,149529.6,182.359,176.73,-102.091
8461,149742,182.713,177.081,-126.954
8473,149954.4,183.069,177.433,-116.934
8485,150166.8,183.422,177.785,-118.092
8497,150379.2,183.776,178.139,-57.004
8509,150591.6,184.13,178.496,-32.3366
8521,150804,184.485,178.852,-22.06623
8533,151016.4,184.839,179.208,-17.6373
8545,151228.8,185.193,179.566,-15.7697
8557,151441.2,185.546,179.922,-15.0081
8569,151653.6,185.9,180.279,-14.6529
8581,151866,186.254,180.635,-14.6134
8593,152078.4,186.608,180.991,-14.6004
8605,152290.8,186.961,181.347,-14.5268
8617,152503.2,187.315,181.704,-14.5384
8629,152715.6,187.669,182.06,-14.6155
8641,152928,188.024,182.416,-14.6137
8653,153140.4,188.377,182.773,-14.6038
8665,153352.8,188.732,183.128,-14.6893
8677,153565.2,189.084,183.485,-14.6111
8689,153777.6,189.437,183.84,-14.644
8701,153990,189.79,184.196,-14.7069
8713,154202.4,190.143,184.551,-14.6935
8725,154414.8,190.496,184.905,-14.7094
8737,154627.2,190.849,185.261,-14.7653
8749,154839.6,191.205,185.615,-14.785
8761,155052,191.56,185.969,-14.8034
8773,155264.4,191.915,186.324,-14.8681
8785,155476.8,192.269,186.679,-14.84338
8797,155689.2,192.622,187.032,-14.8005
8809,155901.6,192.977,187.387,-14.89399
8821,156114,193.331,187.741,-14.9067
8833,156326.4,193.686,188.096,-14.9244
8845,156538.8,194.039,188.451,-15.0352
8857,156751.2,194.395,188.805,-15.1019
8869,156963.6,194.751,189.16,-15.0376
8881,157176,195.104,189.514,-14.9542
8893,157388.4,195.459,189.869,-15.0749
8905,157600.8,195.814,190.223,-15.1632
8917,157813.2,196.167,190.579,-15.1828
8929,158025.6,196.522,190.934,-15.1022
8941,158238,196.875,191.29,-15.1591
8953,158450.4,197.231,191.645,-15.3158
8965,158662.8,197.584,192.001,-15.2846
8977,158875.2,197.937,192.356,-15.3248
8989,159087.6,198.291,192.712,-15.4516
9001,159300,198.645,193.068,-15.33568
9013,159512.4,199,193.423,-15.4599
9025,159724.8,199.353,193.779,-15.5604
9037,159937.2,199.707,194.134,-15.4426
9049,160149.6,200.061,194.491,-15.4432
9061,160362,200.416,194.846,-15.6543
9073,160574.4,200.769,195.203,-15.6172
9085,160786.8,201.123,195.559,-15.4906
9097,160999.2,201.477,195.914,-15.7107
9109,161211.6,201.831,196.27,-15.7404
9121,161424,202.184,196.626,-15.7558
9133,161636.4,202.538,196.981,-15.9159
9145,161848.8,202.892,197.337,-15.9357
9157,162061.2,203.247,197.694,-16.02516
9169,162273.6,203.6,198.049,-16.0416
9181,162486,203.954,198.405,-15.963
9193,162698.4,204.307,198.76,-16.0597
9205,162910.8,204.661,199.117,-16.1807
9217,163123.2,205.014,199.472,-16.19992
9229,163335.6,205.367,199.827,-16.1283
9241,163548,205.723,200.182,-16.19266
9253,163760.4,206.082,200.538,-16.1991
9265,163972.8,206.439,200.894,-16.2694
9277,164185.2,206.786,201.249,-16.2542
9289,164397.6,207.132,201.604,-16.3579
9301,164610,207.486,201.96,-16.2165
9313,164822.4,207.845,202.313,-16.21813
9325,165034.8,208.204,202.668,-16.3099
9337,165247.2,208.557,203.022,-16.3849
9349,165459.6,208.907,203.377,-16.37278
9361,165672,209.26,203.732,-16.411
9373,165884.4,209.618,204.086,-16.57924
9385,166096.8,209.976,204.441,-16.6482
9397,166309.2,210.331,204.797,-16.50993
9409,166521.6,210.682,205.152,-16.5137
9421,166734,211.03,205.507,-16.75714
9433,166946.4,211.386,205.862,-16.68743
9445,167158.8,211.744,206.217,-16.7203
9457,167371.2,212.1,206.572,-16.8486
9469,167583.6,212.451,206.928,-17.0382
9481,167796,212.805,207.283,-17.0396
9493,168008.4,213.16,207.639,-16.9865
9505,168220.8,213.511,207.995,-16.8885
9517,168433.2,213.864,208.35,-16.9883
9529,168645.6,214.221,208.705,-17.01
9541,168858,214.58,209.062,-17.095
9553,169070.4,214.933,209.418,-17.116
9565,169282.8,215.284,209.775,-17.3311
9577,169495.2,215.637,210.132,-17.3795
9589,169707.6,215.994,210.488,-17.381
9601,169920,216.352,210.845,-17.4325
9613,170132.4,216.705,211.202,-17.537
9625,170344.8,217.055,211.559,-17.5912
9637,170557.2,217.41,211.916,-17.8098
9649,170769.6,217.765,212.2741,-17.7405
9661,170982,218.118,212.631,-18.0529
9673,171194.4,218.471,212.988,-18.01801
9685,171406.8,218.825,213.346,-18.0843
9697,171619.2,219.179,213.704,-18.15
9709,171831.6,219.534,214.062,-18.1777
9721,172044,219.887,214.42,-18.2591
9733,172256.4,220.241,214.776,-18.13368
9745,172468.8,220.595,215.134,-18.3776
9757,172681.2,220.949,215.491,-18.5149
9769,172893.6,221.301,215.848,-18.67
9781,173106,221.655,216.206,-18.8133
9793,173318.4,222.008,216.563,-18.908
9805,173530.8,222.362,216.921,-19
9817,173743.2,222.716,217.278,-19.0606
9829,173955.6,223.069,217.635,-19.0078
9841,174168,223.423,217.992,-19.1184
9853,174380.4,223.776,218.348,-19.2271
9865,174592.8,224.131,218.705,-19.1197
9877,174805.2,224.486,219.062,-19.2403
9889,175017.6,224.84,219.418,-19.39126
9901,175230,225.196,219.775,-19.3612
9913,175442.4,225.55,220.132,-19.5861
9925,175654.8,225.906,220.488,-19.6932
9937,175867.2,226.259,220.845,-19.7697
9949,176079.6,226.613,221.201,-19.83
9961,176292,226.966,221.558,-20.0669
9973,176504.4,227.32,221.915,-20.2018
9985,176716.8,227.675,222.272,-20.3598
9997,176929.2,228.029,222.629,-20.3813
10009,177141.6,228.38,222.985,-20.4309
10021,177354,228.733,223.342,-20.3708
10033,177566.4,229.086,223.699,-20.4175
10045,177778.8,229.44,224.054,-20.4443
10057,177991.2,229.794,224.409,-20.4704
10069,178203.6,230.148,224.765,-20.6536
10081,178416,230.504,225.12,-20.85
10093,178628.4,230.857,225.476,-20.99642
10105,178840.8,231.213,225.832,-21.1941
10117,179053.2,231.567,226.188,-21.3324
10129,179265.6,231.921,226.544,-21.3073
10141,179478,232.275,226.899,-21.5082
10153,179690.4,232.629,227.257,-21.5787
10165,179902.8,232.984,227.612,-21.6255
10177,180115.2,233.34,227.969,-21.89839
10189,180327.6,233.697,228.325,-21.9387
10201,180540,234.053,228.682,-22.1276
10213,180752.4,234.407,229.04,-22.3332
10225,180964.8,234.76,229.398,-22.41614
10237,181177.2,235.113,229.756,-22.6915
10249,181389.6,235.466,230.113,-22.7432
10261,181602,235.82,230.471,-22.9441
10273,181814.4,236.173,230.829,-23.0053
10285,182026.8,236.526,231.187,-23.3634
10297,182239.2,236.88,231.544,-23.5131
10309,182451.6,237.233,231.902,-23.6752
10321,182664,237.583,232.26,-23.8124
10333,182876.4,237.933,232.617,-23.968
10345,183088.8,238.286,232.973,-24.1435
10357,183301.2,238.638,233.329,-24.3325
10369,183513.6,238.9928,233.684,-24.5091
10381,183726,239.349,234.038,-24.5433
10393,183938.4,239.708,234.394,-24.6446
10405,184150.8,240.065,234.75,-24.7134
10417,184363.2,240.421,235.106,-25.0518
10429,184575.6,240.775,235.4625,-25.3379
10441,184788,241.126,235.819,-25.5929
10453,185000.4,241.478,236.175,-25.6257
10465,185212.8,241.831,236.531,-25.7942
10477,185425.2,242.182,236.885,-26.08159
10489,185637.6,242.536,237.24,-26.356
10501,185850,242.892,237.595,-26.704
10513,186062.4,243.246,237.95,-26.9929
10525,186274.8,243.601,238.306,-27.2857
10537,186487.2,243.956,238.661,-27.365
10549,186699.6,244.309,239.017,-27.54294
10561,186912,244.664,239.371,-27.9352
10573,187124.4,245.018,239.726,-28.2092
10585,187336.8,245.372,240.081,-28.5143
10597,187549.2,245.727,240.436,-28.692
10609,187761.6,246.081,240.792,-28.9621
10621,187974,246.435,241.146,-29.3436
10633,188186.4,246.789,241.503,-29.7465
10645,188398.8,247.142,241.857,-29.79945
10657,188611.2,247.496,242.213,-30.3916
10669,188823.6,247.852,242.568,-30.8748
10681,189036,248.21,242.925,-31.1538
10693,189248.4,248.567,243.281,-31.61
10705,189460.8,248.921,243.638,-31.9721
10717,189673.2,249.273,243.995,-32.5357
10729,189885.6,249.624,244.352,-33.0874
10741,190098,249.973,244.709,-33.5123
10753,190310.4,250.328,245.065,-34.0321
10765,190522.8,250.684,245.422,-34.542
10777,190735.2,251.041,245.778,-34.9893
10789,190947.6,251.396,246.135,-35.4885
10801,191160,251.75,246.492,-36.1093
10813,191372.4,252.104,246.849,-36.6017
10825,191584.8,252.453,247.206,-37.28761
10837,191797.2,252.803,247.561,-37.7252
10849,192009.6,253.155,247.918,-38.3715
10861,192222,253.509,248.273,-38.9712
10873,192434.4,253.864,248.629,-39.6297
10885,192646.8,254.22,248.984,-40.29711
10897,192859.2,254.574,249.339,-41.0474
10909,193071.6,254.93,249.694,-41.6524
10921,193284,255.285,250.05,-42.3313
10933,193496.4,255.64,250.404,-43.2734
10945,193708.8,255.996,250.761,-44.275
10957,193921.2,256.348,251.117,-45.1261
10969,194133.6,256.699,251.472,-46.13066
10981,194346,257.052,251.827,-47.1488
10993,194558.4,257.408,252.182,-48.1464
11005,194770.8,257.766,252.538,-49.1138
11017,194983.2,258.121,252.893,-50.1391
11029,195195.6,258.474,253.25,-51.3533
11041,195408,258.825,253.606,-52.5379
11053,195620.4,259.177,253.961,-53.7793
11065,195832.8,259.531,254.316,-55.1784
11077,196045.2,259.889,254.671,-56.58656
11089,196257.6,260.245,255.027,-58.0555
11101,196470,260.597,255.383,-59.5918
11113,196682.4,260.947,255.739,-61.1858
11125,196894.8,261.3,256.093,-62.8942
11137,197107.2,261.653,256.449,-64.6175
11149,197319.6,262.009,256.803,-66.4422
11161,197532,262.363,257.157,-68.421
11173,197744.4,262.715,257.511,-70.3764
11185,197956.8,263.069,257.867,-72.5405
11197,198169.2,263.425,258.221,-74.7359
11209,198381.6,263.781,258.575,-77.1427
11221,198594,264.138,258.93,-79.7248
11233,198806.4,264.494,259.285,-82.4102
11245,199018.8,264.845,259.641,-85.3995
11257,199231.2,265.196,259.995,-88.4047
11269,199443.6,265.548,260.349,-91.57218
11281,199656,265.904,260.705,-94.9604
11293,199868.4,266.26,261.059,-98.4732
11305,200080.8,266.615,261.415,-102.146
11317,200293.2,266.967,261.769,-105.976
11329,200505.6,267.322,262.124,-110.013
11341,200718,267.679,262.479,-114.235
11353,200930.4,268.037,262.835,-118.48
11365,201142.8,268.39,263.19,-122.95
11377,201355.2,268.741,263.546,-127.416
11389,201567.6,269.092,263.901,-132.175
11401,201780,269.441,264.256,-137.215
11413,201992.4,269.794,264.611,-142.334
11425,202204.8,270.152,264.965,-147.589
11437,202417.2,270.509,265.319,-152.88
11449,202629.6,270.863,265.674,-157.766
11461,202842,271.214,266.028,-162.187
11473,203054.4,271.566,266.382,-165.9
11485,203266.8,271.919,266.735,-168.926
11497,203479.2,272.275,267.089,-170.191
11509,203691.6,272.632,267.443,-171.417
11521,203904,272.987,267.797,-172.131
11533,204116.4,273.339,268.152,-166.524
11545,204328.8,273.689,268.506,-157.144
11557,204541.2,274.043,268.861,-144.904
11569,204753.6,274.398,269.216,-131.85
11581,204966,274.752,269.572,-96.0238
11593,205178.4,275.109,269.929,-64.5078
11605,205390.8,275.462,270.287,-48.4671
11617,205603.2,275.815,270.645,-40.34045
11629,205815.6,276.169,271.003,-36.2543
11641,206028,276.524,271.361,-34.1752
11653,206240.4,276.881,271.718,-33.0765
11665,206452.8,277.236,272.075,-32.5115
11677,206665.2,277.59,272.433,-32.2838
11689,206877.6,277.941,272.79,-32.16556
11701,207090,278.295,273.148,-32.085
11713,207302.4,278.651,273.505,-32.0539
11725,207514.8,279.007,273.863,-32.0764
11737,207727.2,279.36,274.221,-32.08891
11749,207939.6,279.712,274.578,-32.0613
11761,208152,280.064,274.935,-32.0515
11773,208364.4,280.417,275.291,-31.973
11785,208576.8,280.768,275.647,-31.8916
11797,208789.2,281.124,276.003,-31.84661
11809,209001.6,281.479,276.359,-31.8239
11821,209214,281.836,276.715,-31.8283
11833,209426.4,282.192,277.072,-31.8357
11845,209638.8,282.548,277.428,-31.8325
11857,209851.2,282.9,277.785,-31.8431
11869,210063.6,283.251,278.141,-31.8699
11881,210276,283.603,278.497,-31.8603
11893,210488.4,283.957,278.853,-31.8508
11905,210700.8,284.315,279.209,-31.8202
11917,210913.2,284.672,279.566,-31.7966
11929,211125.6,285.026,279.922,-31.7976
11941,211338,285.376,280.278,-31.8113
11953,211550.4,285.727,280.635,-31.7911
11965,211762.8,286.078,280.99,-31.78738
11977,211975.2,286.433,281.345,-31.7612
11989,212187.6,286.789,281.7,-31.7187
12001,212400,287.145,282.055,-31.7102
12013,212612.4,287.4975,282.411,-31.7059
12025,212824.8,287.851,282.766,-31.73412
12037,213037.2,288.205,283.121,-31.7517
12049,213249.6,288.561,283.476,-31.7549
12061,213462,288.916,283.831,-31.73793
12073,213674.4,289.272,284.187,-31.7295
12085,213886.8,289.628,284.542,-31.74454
12097,214099.2,289.981,284.899,-31.7917
12109,214311.6,290.332,285.255,-31.7803
12121,214524,290.684,285.61,-31.7746
12133,214736.4,291.038,285.966,-31.7793
12145,214948.8,291.392,286.322,-31.7561
12157,215161.2,291.745,286.677,-31.762
12169,215373.6,292.1,287.033,-31.7716
12181,215586,292.455,287.388,-31.7429
12193,215798.4,292.81,287.743,-31.7359
12205,216010.8,293.163,288.098,-31.7573
12217,216223.2,293.517,288.453,-31.7653
12229,216435.6,293.871,288.808,-31.7544
12241,216648,294.225,289.163,-31.7345
12253,216860.4,294.577,289.518,-31.7189
12265,217072.8,294.932,289.872,-31.7028
12277,217285.2,295.286,290.227,-31.6674
12289,217497.6,295.641,290.582,-31.65673
12301,217710,295.994,290.937,-31.6566
12313,217922.4,296.348,291.291,-31.6511
12325,218134.8,296.702,291.645,-31.6325
12337,218347.2,297.059,291.998,-31.5952
12349,218559.6,297.411,292.351,-31.5623
12361,218772,297.765,292.704,-31.5616
12373,218984.4,298.118,293.057,-31.5513
12385,219196.8,298.473,293.409,-31.5091
12397,219409.2,298.827,293.76,-31.4623
12409,219621.6,299.181,294.111,-31.4195
12421,219834,299.535,294.46,-31.3472
12433,220046.4,299.89,294.811,-31.2947
12445,220258.8,300.242,295.164,-31.3113
12457,220471.2,300.595,295.519,-31.39346
12469,220683.6,300.951,295.876,-31.5106
12481,220896,301.306,296.233,-31.6404
12493,221108.4,301.66,296.591,-31.737
12505,221320.8,302.015,296.949,-31.8185
12517,221533.2,302.368,297.306,-31.8606
12529,221745.6,302.721,297.664,-31.8888
12541,221958,303.077,298.022,-31.8802
12553,222170.4,303.432,298.378,-31.8728
12565,222382.8,303.785,298.736,-31.8624
12577,222595.2,304.139,299.093,-31.8713
12589,222807.6,304.492,299.45,-31.8704
12601,223020,304.845,299.807,-31.8599
12613,223232.4,305.199,300.164,-31.8471
12625,223444.8,305.553,300.52,-31.8278
12637,223657.2,305.907,300.876,-31.8167
12649,223869.6,306.262,301.232,-31.7883
12661,224082,306.617,301.588,-31.782
12673,224294.4,306.971,301.946,-31.7972
12685,224506.8,307.326,302.3,-31.7917
12697,224719.2,307.68,302.657,-31.7842
12709,224931.6,308.034,303.014,-31.7816
12721,225144,308.386,303.37,-31.7777
12733,225356.4,308.741,303.726,-31.7792
12745,225568.8,309.092,304.082,-31.79097
12757,225781.2,309.446,304.437,-31.7856
12769,225993.6,309.798,304.793,-31.76935
12781,226206,310.153,305.148,-31.7523
12793,226418.4,310.51,305.504,-31.7396
12805,226630.8,310.866,305.861,-31.7491
12817,226843.2,311.218,306.218,-31.78122
12829,227055.6,311.571,306.574,-31.8029
12841,227268,311.922,306.93,-31.7995
12853,227480.4,312.277,307.287,-31.7882
12865,227692.8,312.633,307.642,-31.757
12877,227905.2,312.989,307.999,-31.742
12889,228117.6,313.343,308.355,-31.7445
12901,228330,313.695,308.71,-31.76442
12913,228542.4,314.049,309.067,-31.7568
12925,228754.8,314.402,309.422,-31.7416
12937,228967.2,314.756,309.778,-31.7237
12949,229179.6,315.112,310.134,-31.70595
12961,229392,315.468,310.491,-31.7053
12973,229604.4,315.82,310.846,-31.7146
12985,229816.8,316.172,311.202,-31.7111
12997,230029.2,316.524,311.557,-31.6886
13009,230241.6,316.879,311.912,-31.6633
13021,230454,317.234,312.268,-31.6272
13033,230666.4,317.589,312.623,-31.6089
13045,230878.8,317.941,312.979,-31.6175
13057,231091.2,318.295,313.334,-31.62107
13069,231303.6,318.65,313.689,-31.6047
13081,231516,319.005,314.044,-31.5867
13093,231728.4,319.227,314.397,-31.5584
13105,231940.8,319.204,314.728,-31.3097
13117,232153.2,319.183,315.031,-30.38368
13129,232365.6,319.172,315.304,-28.8216
13141,232578,319.168,315.556,-26.8782
13153,232790.4,319.169,315.785,-24.804
13165,233002.8,319.166,315.995,-22.7681
13177,233215.2,319.161,316.185,-20.84
13189,233427.6,319.1607,316.36,-19.0043
13201,233640,319.16,316.519,-17.2949
13213,233852.4,319.16,316.665,-15.713
13225,234064.8,319.16,316.799,-14.2587
13237,234277.2,319.155,316.92,-12.9459
13249,234489.6,319.153,317.03,-11.73103
13261,234702,319.157,317.131,-10.5955
13273,234914.4,319.16,317.224,-9.579171
13285,235126.8,319.163,317.309,-8.664696
13297,235339.2,319.162,317.389,-7.850646
13309,235551.6,319.161,317.46,-7.118271
13321,235764,319.156,317.525,-6.441197
13333,235976.4,319.152,317.585,-5.803542
13345,236188.8,319.156,317.639,-5.201075
13357,236401.2,319.157,317.689,-4.659934
13369,236613.6,319.156,317.736,-4.182306
13381,236826,319.153,317.777,-3.72852
13393,237038.4,319.15,317.815,-3.304471
13405,237250.8,319.147,317.85,-2.925682
13417,237463.2,319.149,317.881,-2.551308
13429,237675.6,319.15,317.909,-2.216275
13441,237888,319.15,317.935,-1.918047
13453,238100.4,319.15,317.958,-1.642276
13465,238312.8,319.151,317.98,-1.403135
13477,238525.2,319.149,318,-1.200284
13489,238737.6,319.151,318.018,-0.994233
13501,238950,319.15,318.034,-0.80945
13513,239162.4,319.152,318.049,-0.645933
13525,239374.8,319.15,318.062,-0.494401
13537,239587.2,319.15,318.075,-0.35367
13549,239799.6,319.151,318.087,-0.227117
13561,240012,319.153,318.096,-0.105796
13573,240224.4,319.158,318.107,-0.009618
13585,240436.8,319.158,318.117,0.045557
13597,240649.2,319.159,318.127,0.094826
13609,240861.6,319.158,318.136,0.140213
13621,241074,319.156,318.145,0.179189
13633,241286.4,319.15,318.152,0.237398
13645,241498.8,319.145,318.158,0.319567
13657,241711.2,319.145,318.163,0.416414
13669,241923.6,319.145,318.168,0.498919
13681,242136,319.146,318.171,0.57653
13693,242348.4,319.146,318.175,0.647055
13705,242560.8,319.146,318.178,0.697502
13717,242773.2,319.149,318.181,0.743731
13729,242985.6,319.15,318.183,0.780005
13741,243198,319.151,318.186,0.803793
13753,243410.4,319.152,318.188,0.820833
13765,243622.8,319.152,318.19,0.824206
13777,243835.2,319.151,318.193,0.839558
13789,244047.6,319.15,318.195,0.853561
13801,244260,319.149,318.196,0.874988
13813,244472.4,319.149,318.197,0.899958
13825,244684.8,319.15,318.198,0.923578
13837,244897.2,319.151,318.198,0.953948
13849,245109.6,319.152,318.199,0.966938
13861,245322,319.15,318.2,0.966769
13873,245534.4,319.148,318.201,0.972336
13885,245746.8,319.149,318.201,0.976892
13897,245959.2,319.148,318.201,0.993426
13909,246171.6,319.145,318.201,1.012154
13921,246384,319.142,318.199,1.042357
13933,246596.4,319.14,318.197,1.069016
13945,246808.8,319.143,318.195,1.131613
13957,247021.2,319.147,318.194,1.182062
13969,247233.6,319.151,318.192,1.206697
13981,247446,319.153,318.192,1.195393
13993,247658.4,319.149,318.191,1.175147
14005,247870.8,319.145,318.191,1.152032
14017,248083.2,319.146,318.189,1.152709
14029,248295.6,319.149,318.187,1.163846
14041,248508,319.15,318.186,1.174814
14053,248720.4,319.15,318.186,1.17667
14065,248932.8,319.148,318.184,1.171272
14077,249145.2,319.15,318.184,1.158787
14089,249357.6,319.149,318.183,1.151701
14101,249570,319.15,318.182,1.155751
14113,249782.4,319.145,318.181,1.14681
14125,249994.8,319.141,318.179,1.160647
14137,250207.2,319.141,318.176,1.179041
14149,250419.6,319.147,318.173,1.221055
14161,250632,319.151,318.172,1.241472
14173,250844.4,319.151,318.171,1.242822
14185,251056.8,319.146,318.17,1.212959
14197,251269.2,319.141,318.168,1.206212
14209,251481.6,319.143,318.165,1.228992
14221,251694,319.148,318.162,1.254472
14233,251906.4,319.149,318.161,1.264428
14245,252118.8,319.147,318.16,1.265948
14257,252331.2,319.146,318.157,1.242666
14269,252543.6,319.15,318.156,1.248572
14281,252756,319.153,318.154,1.248912
14293,252968.4,319.154,318.1542,1.229002
14305,253180.8,319.153,318.153,1.187833
14317,253393.2,319.148,318.154,1.158812
14329,253605.6,319.146,318.152,1.152064
14341,253818,319.148,318.151,1.157127
14353,254030.4,319.15,318.15,1.17147
14365,254242.8,319.154,318.15,1.169445
14377,254455.2,319.154,318.151,1.150041
14389,254667.6,319.155,318.151,1.119838
14401,254880,319.154,318.153,1.089129
14413,255092.4,319.153,318.153,1.058926
14425,255304.8,319.153,318.155,1.038509
14437,255517.2,319.153,318.157,1.017417
14449,255729.6,319.153,318.157,1.006787
14461,255942,319.154,318.158,0.99565
14473,256154.4,319.153,318.16,0.984682
14485,256366.8,319.152,318.162,0.975569
14497,256579.2,319.153,318.163,0.966627
14509,256791.6,319.153,318.164,0.962239
14521,257004,319.153,318.165,0.951608
14533,257216.4,319.153,318.168,0.953294
14545,257428.8,319.153,318.168,0.947051
14557,257641.2,319.155,318.17,0.948568
14569,257853.6,319.156,318.172,0.941649
14581,258066,319.155,318.174,0.938948
14593,258278.4,319.155,318.176,0.92663
14605,258490.8,319.155,318.177,0.921399
14617,258703.2,319.155,318.18,0.910092
14629,258915.6,319.155,318.182,0.899293
14641,259128,319.154,318.184,0.889168
14653,259340.4,319.152,318.186,0.883937
14665,259552.8,319.152,318.188,0.885285
14677,259765.2,319.154,318.189,0.883934
14689,259977.6,319.152,318.191,0.889839
14701,260190,319.152,318.192,0.891019
14713,260402.4,319.152,318.194,0.892705
14725,260614.8,319.152,318.196,0.893885
14737,260827.2,319.151,318.197,0.89574
14749,261039.6,319.152,318.199,0.899451
14761,261252,319.151,318.2,0.898437
14773,261464.4,319.151,318.201,0.901643
14785,261676.8,319.151,318.202,0.906872
14797,261889.2,319.149,318.202,0.913959
14809,262101.6,319.148,318.203,0.926106
14821,262314,319.149,318.203,0.934541
14833,262526.4,319.147,318.204,0.956137
14845,262738.8,319.147,318.205,0.975371
14857,262951.2,319.147,318.206,0.991398
14869,263163.6,319.148,318.205,1.010464
14881,263376,319.147,318.205,1.029698
14893,263588.4,319.147,318.204,1.041509
14905,263800.8,319.148,318.205,1.052307
14917,264013.2,319.149,318.204,1.064287
14929,264225.6,319.147,318.204,1.072048
14941,264438,319.148,318.203,1.078966
14953,264650.4,319.15,318.204,1.085546
14956,264703.5,319.151,318.204,1.087908