File: z_unorganized_archive/i_data/46C/H2O-NH3_2.84wt%_1ml.csv
"H2O-NH3 2.84wt% Specific Heat - Low HF, 1mL",,,,
Creation Date : 9/22/2022 11:21:05 AM,,,,
User : admin,,,,
,,,,
HeatFlow :,,,,
 Initial Mass : 964.2 mg,,,,
 Molar Mass : 17 g/mol,,,,
,,,,
Index,Time(s),Furnace Temperature(K),Sample Temperature(K),HeatFlow(mW)
1,0,299.128,299.179,5.359686
13,212.4,299.116,299.177,2.600711
25,424.8,299.097,299.174,1.086982
37,637.2,299.062,299.169,0.462145
49,849.6,298.996,299.16,0.227574
61,1062,298.873,299.145,0.178628
73,1274.4,298.669,299.118,0.244392
85,1486.8,298.337,299.07,0.412116
97,1699.2,297.797,298.99,0.683606
109,1911.6,296.992,298.86,1.117472
121,2124,295.918,298.661,1.833555
133,2336.4,294.603,298.376,2.887036
145,2548.8,293.121,297.993,4.244604
157,2761.2,291.541,297.513,5.864803
169,2973.6,289.91,296.936,7.657364
181,3186,288.25,296.265,9.523141
193,3398.4,286.577,295.511,11.3877
205,3610.8,284.905,294.679,13.2022
217,3823.2,283.245,293.779,14.9114
229,4035.6,281.6,292.822,16.4323
241,4248,279.974,291.814,17.6706
253,4460.4,278.369,290.751,18.9023
265,4672.8,276.789,289.64,20.1083
277,4885.2,275.234,288.49,21.1851
289,5097.6,273.706,287.31,22.1201
301,5310,272.206,286.102,22.9235
313,5522.4,270.733,284.873,23.5882
325,5734.8,269.285,283.627,24.1534
337,5947.2,267.864,282.367,24.6231
349,6159.6,266.468,281.098,25.0181
361,6372,265.095,279.822,25.3628
373,6584.4,263.746,278.542,25.6533
385,6796.8,262.428,277.259,25.8574
397,7009.2,261.14,275.979,26.0861
409,7221.6,259.879,274.702,26.4499
421,7434,258.642,273.43,26.40359
433,7646.4,257.422,272.166,26.2925
445,7858.8,256.218,270.909,26.3041
457,8071.2,255.026,269.659,26.3575
469,8283.6,253.849,268.417,26.3169
481,8496,252.685,267.186,26.3547
493,8708.4,251.534,265.962,26.1764
505,8920.8,250.394,264.748,26.3151
517,9133.2,249.265,263.543,26.1509
529,9345.6,248.147,262.348,25.8503
541,9558,247.04,261.163,25.84148
553,9770.4,245.943,259.986,25.6994
565,9982.8,244.856,258.819,25.5394
577,10195.2,243.779,257.661,25.43718
589,10407.6,242.711,256.519,63.2717
601,10620,241.653,255.399,63.3866
613,10832.4,240.608,254.275,63.5035
625,11044.8,239.573,253.156,63.6214
637,11257.2,238.546,252.045,57.827
649,11469.6,237.524,250.944,40.5905
661,11682,236.504,249.849,32.1598
673,11894.4,235.489,248.765,27.8769
685,12106.8,234.479,247.687,25.1414
697,12319.2,233.47,246.617,23.4943
709,12531.6,232.467,245.554,22.281
721,12744,231.478,244.498,21.0624
733,12956.4,230.503,243.452,20.37919
745,13168.8,229.541,242.413,19.5383
757,13381.2,228.59,241.383,18.8235
769,13593.6,227.65,240.361,17.9683
781,13806,226.721,239.349,17.4179
793,14018.4,225.802,238.345,16.52024
805,14230.8,224.889,237.35,16.0665
817,14443.2,223.985,236.365,15.6612
829,14655.6,223.089,235.387,15.5588
841,14868,222.2,234.418,15.2169
853,15080.4,221.319,233.457,14.4799
865,15292.8,220.443,232.505,14.0383
877,15505.2,219.564,231.56,13.6935
889,15717.6,218.683,230.622,13.3347
901,15930,217.805,229.69,12.9784
913,16142.4,216.933,228.764,13.0866
925,16354.8,216.067,227.843,13.0804
937,16567.2,215.21,226.929,12.3282
949,16779.6,214.3632,226.022,11.8165
961,16992,213.525,225.122,11.6259
973,17204.4,212.698,224.228,11.0495
985,17416.8,211.876,223.341,10.76741
997,17629.2,211.055,222.46,10.6936
1009,17841.6,210.239,221.586,10.6846
1021,18054,209.43,220.717,10.6636
1033,18266.4,208.629,219.857,10.3552
1045,18478.8,207.836,219,9.846043
1057,18691.2,207.049,218.151,9.444902
1069,18903.6,206.269,217.309,9.095154
1081,19116,205.497,216.473,9.339368
1093,19328.4,204.73,215.644,9.334948
1105,19540.8,203.966,214.821,8.71122
1117,19753.2,203.205,214.003,8.642469
1129,19965.6,202.453,213.191,8.591645
1141,20178,201.703,212.384,8.19442
1153,20390.4,200.961,211.585,8.127053
1165,20602.8,200.225,210.79,8.02142
1177,20815.2,199.494,210.001,7.937975
1189,21027.6,198.77,209.218,8.081043
1201,21240,198.054,208.441,7.841026
1213,21452.4,197.344,207.67,7.620797
1225,21664.8,196.642,206.905,7.45561
1237,21877.2,195.949,206.146,7.03356
1249,22089.6,195.261,205.393,7.18452
1261,22302,194.58,204.646,7.091059
1273,22514.4,193.905,203.906,7.069902
1285,22726.8,193.232,203.17,6.752548
1297,22939.2,192.562,202.442,6.752635
1309,23151.6,191.898,201.719,6.632662
1321,23364,191.235,201,6.694661
1333,23576.4,190.578,200.287,6.186998
1345,23788.8,189.928,199.58,6.461704
1357,24001.2,189.28,198.877,6.673144
1369,24213.6,188.635,198.179,6.438507
1381,24426,187.997,197.487,6.152257
1393,24638.4,187.361,196.799,5.799866
1405,24850.8,186.73,196.116,5.654772
1417,25063.2,186.107,195.439,5.673828
1429,25275.6,185.485,194.766,5.736019
1441,25488,184.87,194.098,5.541295
1453,25700.4,184.263,193.434,5.348236
1465,25912.8,183.669,192.776,5.532414
1477,26125.2,183.085,192.124,5.412447
1489,26337.6,182.508,191.478,5.600082
1501,26550,181.937,190.837,5.175248
1513,26762.4,181.37,190.203,5.073777
1525,26974.8,180.807,189.575,5.208973
1537,27187.2,180.249,188.952,4.974857
1549,27399.6,179.694,188.334,5.043906
1561,27612,179.142,187.722,5.030931
1573,27824.4,178.597,187.115,4.892377
1585,28036.8,178.055,186.513,4.681459
1597,28249.2,177.517,185.915,4.870574
1609,28461.6,176.982,185.324,4.716395
1621,28674,176.449,184.736,4.786144
1633,28886.4,175.92,184.153,4.845295
1645,29098.8,175.394,183.575,4.603975
1657,29311.2,174.872,183.002,4.597234
1669,29523.6,174.356,182.432,4.233027
1681,29736,173.8421,181.867,4.261572
1693,29948.4,173.33,181.306,4.078447
1705,30160.8,172.822,180.75,3.961434
1717,30373.2,172.316,180.197,4.096713
1729,30585.6,171.813,179.648,4.049942
1741,30798,171.312,179.103,3.821585
1753,31010.4,170.8161,178.562,3.788003
1765,31222.8,170.321,178.025,3.538171
1777,31435.2,169.8263,177.49,3.70074
1789,31647.6,169.337,176.96,3.463952
1801,31860,168.849,176.433,3.537931
1813,32072.4,168.366,175.909,3.75427
1825,32284.8,167.886,175.388,3.610054
1837,32497.2,167.409,174.872,3.391917
1849,32709.6,166.937,174.358,3.400815
1861,32922,166.469,173.848,3.535626
1873,33134.4,166.005,173.341,3.632967
1885,33346.8,165.544,172.838,3.536455
1897,33559.2,165.087,172.338,3.589443
1909,33771.6,164.633,171.842,3.531154
1921,33984,164.183,171.349,3.278037
1933,34196.4,163.736,170.86,3.222483
1945,34408.8,163.291,170.374,3.140935
1957,34621.2,162.846,169.891,3.362165
1969,34833.6,162.399,169.411,3.309188
1981,35046,161.951,168.933,2.93356
1993,35258.4,161.504,168.459,2.837493
2005,35470.8,161.058,167.986,3.086396
2017,35683.2,160.611,167.516,3.385242
2029,35895.6,160.165,167.048,3.492046
2041,36108,159.721,166.581,3.320081
2053,36320.4,159.279,166.117,3.372662
2065,36532.8,158.839,165.654,3.327562
2077,36745.2,158.4,165.193,3.308036
2089,36957.6,157.964,164.736,2.935289
2101,37170,157.533,164.279,3.159421
2113,37382.4,157.107,163.825,3.281238
2125,37594.8,156.684,163.372,3.135675
2137,37807.2,156.264,162.923,3.30111
2149,38019.6,155.848,162.476,2.959434
2161,38232,155.44,162.031,2.962832
2173,38444.4,155.037,161.59,2.717926
2185,38656.8,154.642,161.152,2.828511
2197,38869.2,154.255,160.717,3.033885
2209,39081.6,153.874,160.286,3.305984
2221,39294,153.497,159.859,3.042201
2233,39506.4,153.12,159.435,3.105072
2245,39718.8,152.733,159.014,3.180445
2257,39931.2,152.33,158.596,2.924592
2269,40143.6,151.909,158.178,3.188382
2281,40356,151.481,157.759,3.082968
2293,40568.4,151.063,157.341,2.891999
2305,40780.8,150.6519,156.923,2.841464
2317,40993.2,150.237,156.506,3.17079
2329,41205.6,149.822,156.09,3.228717
2341,41418,149.416,155.674,3.301676
2353,41630.4,149.02,155.259,3.042326
2365,41842.8,148.618,154.846,2.824111
2377,42055.2,148.208,154.433,2.808349
2389,42267.6,147.803,154.021,2.949837
2401,42480,147.412,153.609,3.069928
2413,42692.4,147.032,153.2,3.159462
2425,42904.8,146.645,152.794,3.105947
2437,43117.2,146.255,152.389,3.125188
2449,43329.6,145.871,151.984,3.032214
2461,43542,145.504,151.582,2.862717
2473,43754.4,145.139,151.183,2.539449
2485,43966.8,144.763,150.785,2.655736
2497,44179.2,144.383,150.388,2.705534
2509,44391.6,144.012,149.995,2.620282
2521,44604,143.659,149.603,2.517379
2533,44816.4,143.317,149.214,2.70683
2545,45028.8,142.968,148.828,2.70569
2557,45241.2,142.615,148.445,2.893781
2569,45453.6,142.269,148.064,2.904667
2581,45666,141.937,147.685,2.83286
2593,45878.4,141.605,147.31,2.945231
2605,46090.8,141.261,146.939,2.836997
2617,46303.2,140.918,146.569,2.526304
2629,46515.6,140.584,146.201,2.416164
2641,46728,140.266,145.835,2.554853
2653,46940.4,139.957,145.474,2.472765
2665,47152.8,139.643,145.116,2.464068
2677,47365.2,139.329,144.76,2.588584
2689,47577.6,139.024,144.408,2.574867
2701,47790,138.723,144.06,2.504728
2713,48002.4,138.413,143.715,2.441067
2725,48214.8,138.099,143.371,2.351525
2737,48427.2,137.794,143.03,2.305911
2749,48639.6,137.5,142.692,2.214704
2761,48852,137.203,142.357,2.32498
2773,49064.4,136.893,142.024,2.451338
2785,49276.8,136.576,141.691,2.525234
2797,49489.2,136.266,141.361,2.387431
2809,49701.6,135.969,141.032,2.372603
2821,49914,135.666,140.706,2.463244
2833,50126.4,135.355,140.381,2.680281
2845,50338.8,135.046,140.056,2.548433
2857,50551.2,134.752,139.734,2.300303
2869,50763.6,134.474,139.414,2.151956
2881,50976,134.198,139.097,2.077714
2893,51188.4,133.911,138.782,2.015044
2905,51400.8,133.621,138.469,2.109953
2917,51613.2,133.34,138.158,2.187851
2929,51825.6,133.077,137.849,2.289017
2941,52038,132.815,137.544,2.230019
2953,52250.4,132.544,137.241,2.131015
2965,52462.8,132.267,136.94,2.179742
2977,52675.2,131.999,136.642,2.00799
2989,52887.6,131.747,136.345,2.048862
3001,53100,131.499,136.052,1.924706
3013,53312.4,131.242,135.761,1.936204
3025,53524.8,130.981,135.472,1.907302
3037,53737.2,130.725,135.185,1.95373
3049,53949.6,130.484,134.901,1.915574
3061,54162,130.244,134.62,1.843439
3073,54374.4,129.989,134.342,1.865106
3085,54586.8,129.724,134.064,1.778416
3097,54799.2,129.462,133.787,1.81651
3109,55011.6,129.216,133.512,1.800873
3121,55224,128.99,133.2396,1.695284
3133,55436.4,128.769,132.97,1.750381
3145,55648.8,128.535,132.704,1.848469
3157,55861.2,128.295,132.439,1.76339
3169,56073.6,128.061,132.177,1.785385
3181,56286,127.84,131.916,1.80498
3193,56498.4,127.62,131.658,1.7408
3205,56710.8,127.394,131.402,1.774405
3217,56923.2,127.157,131.149,1.645457
3229,57135.6,126.907,130.895,1.638192
3241,57348,126.658,130.643,1.656013
3253,57560.4,126.422,130.39,1.70052
3265,57772.8,126.204,130.139,1.622609
3277,57985.2,125.982,129.891,1.608607
3289,58197.6,125.746,129.643,1.691479
3301,58410,125.504,129.396,1.636238
3313,58622.4,125.268,129.15,1.548136
3325,58834.8,125.05,128.904,1.588533
3337,59047.2,124.852,128.662,1.610623
3349,59259.6,124.657,128.423,1.549743
3361,59472,124.45,128.186,1.571872
3373,59684.4,124.235,127.95,1.498362
3385,59896.8,124.024,127.717,1.363048
3397,60109.2,123.825,127.484,1.488153
3409,60321.6,123.625,127.254,1.362342
3421,60534,123.413,127.026,1.392987
3433,60746.4,123.195,126.798,1.41671
3445,60958.8,122.984,126.572,1.420829
3457,61171.2,122.788,126.347,1.370168
3469,61383.6,122.61,126.124,1.37305
3481,61596,122.428,125.904,1.266632
3493,61808.4,122.227,125.686,1.259386
3505,62020.8,122.0147,125.469,1.276856
3517,62233.2,121.805,125.252,1.320861
3529,62445.6,121.61,125.036,1.41268
3541,62658,121.435,124.822,1.368028
3553,62870.4,121.263,124.611,1.330198
3565,63082.8,121.08,124.402,1.354944
3577,63295.2,120.894,124.194,1.290815
3589,63507.6,120.716,123.988,1.176463
3601,63720,120.55,123.785,1.150565
3613,63932.4,120.378,123.583,1.191375
3625,64144.8,120.198,123.383,1.228056
3637,64357.2,120.013,123.184,1.194607
3649,64569.6,119.819,122.986,1.121501
3661,64782,119.62,122.788,1.111536
3673,64994.4,119.419,122.591,1.22819
3685,65206.8,119.209,122.391,1.154456
3697,65419.2,118.996,122.192,1.187681
3709,65631.6,118.794,121.993,1.227811
3721,65844,118.614,121.793,1.235814
3733,66056.4,118.453,121.596,1.216288
3745,66268.8,118.291,121.4,1.194023
3757,66481.2,118.12,121.207,1.169648
3769,66693.6,117.953,121.016,1.243952
3781,66906,117.795,120.8254,1.179325
3793,67118.4,117.646,120.638,1.186362
3805,67330.8,117.4923,120.453,1.171054
3817,67543.2,117.333,120.269,1.187226
3829,67755.6,117.176,120.087,1.156727
3841,67968,117.03,119.907,1.092635
3853,68180.4,116.891,119.73,1.12166
3865,68392.8,116.74,119.556,1.098305
3877,68605.2,116.581,119.38,1.094684
3889,68817.6,116.421,119.207,1.086326
3901,69030,116.273,119.036,1.092554
3913,69242.4,116.14,118.866,1.06022
3925,69454.8,116.009,118.699,1.066369
3937,69667.2,115.874,118.534,1.055274
3949,69879.6,115.721,118.37,1.061814
3961,70092,115.548,118.205,1.069996
3973,70304.4,115.364,118.04,1.044452
3985,70516.8,115.185,117.875,1.049622
3997,70729.2,115.023,117.708,1.07191
4009,70941.6,114.883,117.543,1.053444
4021,71154,114.764,117.379,1.035461
4033,71366.4,114.65,117.22,1.0256
4045,71578.8,114.533,117.063,0.977823
4057,71791.2,114.418,116.908,1.004909
4069,72003.6,114.309,116.756,0.986735
4081,72216,114.19,116.607,0.96185
4093,72428.4,114.05,116.459,0.953828
4105,72640.8,113.895,116.311,0.942865
4117,72853.2,113.743,116.163,0.942481
4129,73065.6,113.604,116.015,0.964061
4141,73278,113.484,115.868,0.955636
4153,73490.4,113.372,115.723,0.985505
4165,73702.8,113.252,115.58,0.984888
4177,73915.2,113.114,115.437,0.962622
4189,74127.6,112.965,115.295,0.963357
4201,74340,112.822,115.152,0.978419
4213,74552.4,112.694,115.01,0.973161
4225,74764.8,112.579,114.869,0.966063
4237,74977.2,112.458,114.729,0.953775
4249,75189.6,112.325,114.591,0.985942
4261,75402,112.192,114.452,0.959631
4273,75614.4,112.07,114.314,0.967817
4285,75826.8,111.963,114.178,0.96913
4297,76039.2,111.86,114.044,0.960052
4309,76251.6,111.742,113.91,0.968271
4321,76464,111.612,113.779,0.940427
4333,76676.4,111.482,113.647,0.96117
4345,76888.8,111.361,113.516,0.95389
4357,77101.2,111.258,113.386,0.963167
4369,77313.6,111.166,113.258,0.943981
4381,77526,111.072,113.132,0.916044
4393,77738.4,110.962,113.008,0.9095
4405,77950.8,110.841,112.884,0.897079
4417,78163.2,110.722,112.76,0.911316
4429,78375.6,110.613,112.637,0.894651
4441,78588,110.514,112.516,0.884067
4453,78800.4,110.412,112.395,0.887682
4465,79012.8,110.305,112.276,0.880529
4477,79225.2,110.192,112.157,0.893753
4489,79437.6,110.065,112.038,0.873126
4501,79650,109.928,111.919,0.886127
4513,79862.4,109.794,111.797,0.883376
4525,80074.8,109.676,111.676,0.872109
4537,80287.2,109.58,111.556,0.875401
4549,80499.6,109.494,111.438,0.872111
4561,80712,109.408,111.321,0.875044
4573,80924.4,109.32,111.207,0.844109
4585,81136.8,109.223,111.094,0.836607
4597,81349.2,109.119,110.981,0.820234
4609,81561.6,109.015,110.87,0.807796
4621,81774,108.904,110.758,0.814036
4633,81986.4,108.788,110.646,0.809231
4645,82198.8,108.68,110.535,0.821985
4657,82411.2,108.589,110.425,0.833567
4669,82623.6,108.515,110.315,0.811013
4681,82836,108.441,110.209,0.793564
4693,83048.4,108.362,110.104,0.785494
4705,83260.8,108.275,110.001,0.773496
4717,83473.2,108.186,109.898,0.759463
4729,83685.6,108.094,109.797,0.754165
4741,83898,107.998,109.695,0.748631
4753,84110.4,107.902,109.594,0.749723
4765,84322.8,107.804,109.494,0.747151
4777,84535.2,107.702,109.393,0.738761
4789,84747.6,107.601,109.293,0.733717
4801,84960,107.515,109.192,0.738024
4813,85172.4,107.45,109.094,0.717666
4825,85384.8,107.411,108.998,0.70787
4837,85597.2,107.382,108.907,0.692049
4849,85809.6,107.343,108.819,0.670916
4861,86022,107.3,108.733,0.626914
4873,86234.4,107.257,108.651,0.605496
4885,86446.8,107.228,108.572,0.583494
4897,86659.2,107.21,108.4961,0.563539
4909,86871.6,107.196,108.424,0.536441
4921,87084,107.184,108.356,0.501524
4933,87296.4,107.159,108.2918,0.480354
4945,87508.8,107.112,108.229,0.480299
4957,87721.2,107.051,108.165,0.467652
4969,87933.6,106.987,108.103,0.456443
4981,88146,106.928,108.04,0.453565
4993,88358.4,106.8841,107.978,0.452746
5005,88570.8,106.861,107.918,0.44197
5017,88783.2,106.853,107.862,0.427555
5029,88995.6,106.854,107.808,0.416979
5041,89208,106.858,107.758,0.384252
5053,89420.4,106.861,107.712,0.366973
5065,89632.8,106.863,107.668,0.338521
5077,89845.2,106.862,107.628,0.309707
5089,90057.6,106.846,107.589,0.296137
5101,90270,106.812,107.551,0.281226
5113,90482.4,106.77,107.513,0.272761
5125,90694.8,106.731,107.475,0.284168
5137,90907.2,106.694,107.436,0.279485
5149,91119.6,106.657,107.398,0.278974
5161,91332,106.62,107.36,0.289864
5173,91544.4,106.584,107.323,0.278193
5185,91756.8,106.541,107.285,0.281765
5197,91969.2,106.497,107.246,0.277096
5209,92181.6,106.46,107.208,0.284663
5221,92394,106.42,107.17,0.276815
5233,92606.4,106.368,107.131,0.273559
5245,92818.8,106.304,107.091,0.280542
5257,93031.2,106.239,107.049,0.297562
5269,93243.6,106.183,107.006,0.306028
5281,93456,106.147,106.963,0.311868
5293,93668.4,106.13,106.921,0.305824
5305,93880.8,106.116,106.88,0.296716
5317,94093.2,106.084,106.841,0.297591
5329,94305.6,106.0362,106.803,0.292529
5341,94518,105.981,106.762,0.284078
5353,94730.4,105.926,106.72,0.291407
5365,94942.8,105.885,106.679,0.295805
5377,95155.2,105.872,106.638,0.287774
5389,95367.6,105.877,106.6,0.281602
5401,95580,105.886,106.565,0.26841
5413,95792.4,105.896,106.533,0.246658
5425,96004.8,105.894,106.502,0.231546
5437,96217.2,105.873,106.473,0.22786
5449,96429.6,105.84,106.444,0.224237
5461,96642,105.804,106.416,0.218576
5473,96854.4,105.788,106.386,0.21186
5485,97066.8,105.791,106.359,0.204349
5497,97279.2,105.802,106.334,0.188314
5509,97491.6,105.812,106.311,0.173144
5521,97704,105.815,106.289,0.167585
5533,97916.4,105.801,106.269,0.159676
5545,98128.8,105.771,106.249,0.14992
5557,98341.2,105.733,106.227,0.159014
5569,98553.6,105.698,106.205,0.170756
5581,98766,105.675,106.182,0.166134
5593,98978.4,105.658,106.16,0.166547
5605,99190.8,105.648,106.138,0.163223
5617,99403.2,105.642,106.117,0.163794
5629,99615.6,105.634,106.097,0.152243
5641,99828,105.629,106.078,0.148763
5653,100040.4,105.632,106.06,0.134629
5665,100252.8,105.638,106.043,0.129262
5677,100465.2,105.649,106.029,0.116647
5689,100677.6,105.658,106.015,0.110216
5701,100890,105.656,106.002,0.10918
5713,101102.4,105.647,105.99,0.10174
5725,101314.8,105.641,105.979,0.092599
5737,101527.2,105.6435,105.968,0.09606
5749,101739.6,105.648,105.958,0.082105
5761,101952,105.657,105.949,0.085746
5773,102164.4,105.665,105.941,0.07259
5785,102376.8,105.671,105.933,0.065505
5797,102589.2,105.678,105.928,0.057412
5809,102801.6,105.687,105.922,0.053084
5821,103014,105.698,105.918,0.045471
5833,103226.4,105.71,105.915,0.041526
5845,103438.8,105.72,105.912,0.035495
5857,103651.2,105.73,105.911,0.026138
5869,103863.6,105.77,105.91,0.024652
5881,104076,106.119,105.918,-0.041354
5893,104288.4,106.705,105.952,-0.175722
5905,104500.8,107.232,106.018,-0.359085
5917,104713.2,107.655,106.11,-0.530074
5929,104925.6,108.019,106.222,-0.681573
5941,105138,108.364,106.349,-0.806957
5953,105350.4,108.709,106.491,-0.914244
5965,105562.8,109.06,106.645,-1.015808
5977,105775.2,109.411,106.812,-1.108974
5989,105987.6,109.767,106.99,-1.196808
6001,106200,110.124,107.18,-1.276255
6013,106412.4,110.482,107.381,-1.358706
6025,106624.8,110.839,107.592,-1.427615
6037,106837.2,111.193,107.811,-1.494462
6049,107049.6,111.546,108.039,-1.568707
6061,107262,111.902,108.275,-1.624034
6073,107474.4,112.256,108.519,-1.681724
6085,107686.8,112.611,108.769,-1.732217
6097,107899.2,112.966,109.026,-1.794484
6109,108111.6,113.321,109.289,-1.836182
6121,108324,113.677,109.558,-1.886278
6133,108536.4,114.03,109.832,-1.921705
6145,108748.8,114.384,110.112,-1.971422
6157,108961.2,114.739,110.394,-2.000108
6169,109173.6,115.094,110.682,-2.036382
6181,109386,115.448,110.974,-2.067925
6193,109598.4,115.804,111.271,-2.106761
6205,109810.8,116.156,111.57,-2.137521
6217,110023.2,116.511,111.873,-2.164572
6229,110235.6,116.865,112.178,-2.194475
6241,110448,117.219,112.487,-2.218587
6253,110660.4,117.573,112.798,-2.241233
6265,110872.8,117.926,113.112,-2.260656
6277,111085.2,118.279,113.427,-2.286095
6289,111297.6,118.633,113.745,-2.298946
6301,111510,118.988,114.066,-2.321758
6313,111722.4,119.344,114.388,-2.343088
6325,111934.8,119.696,114.712,-2.371978
6337,112147.2,120.045,115.038,-2.379957
6349,112359.6,120.398,115.364,-2.405607
6361,112572,120.757,115.692,-2.415663
6373,112784.4,121.116,116.021,-2.431234
6385,112996.8,121.472,116.352,-2.446141
6397,113209.2,121.826,116.685,-2.472935
6409,113421.6,122.172,117.0176,-2.489272
6421,113634,122.522,117.352,-2.500999
6433,113846.4,122.878,117.687,-2.522608
6445,114058.8,123.241,118.023,-2.541719
6457,114271.2,123.598,118.361,-2.568583
6469,114483.6,123.951,118.699,-2.584144
6481,114696,124.296,119.038,-2.614404
6493,114908.4,124.642,119.377,-2.636027
6505,115120.8,124.995,119.716,-2.660815
6517,115333.2,125.353,120.055,-2.67851
6529,115545.6,125.716,120.394,-2.708861
6541,115758,126.074,120.736,-2.736274
6553,115970.4,126.426,121.079,-2.745643
6565,116182.8,126.778,121.421,-2.763342
6577,116395.2,127.136,121.764,-2.759369
6589,116607.6,127.49,122.108,-2.757687
6601,116820,127.837,122.452,-2.747069
6613,117032.4,128.188,122.794,-2.734988
6625,117244.8,128.544,123.139,-2.725319
6637,117457.2,128.903,123.483,-2.719613
6649,117669.6,129.261,123.828,-2.722981
6661,117882,129.616,124.175,-2.730081
6673,118094.4,129.972,124.521,-2.730068
6685,118306.8,130.321,124.867,-2.727641
6697,118519.2,130.669,125.213,-2.73238
6709,118731.6,131.021,125.56,-2.738444
6721,118944,131.379,125.906,-2.735177
6733,119156.4,131.733,126.252,-2.728078
6745,119368.8,132.084,126.599,-2.733834
6757,119581.2,132.44,126.946,-2.739368
6769,119793.6,132.801,127.293,-2.741717
6781,120006,133.156,127.641,-2.743436
6793,120218.4,133.505,127.988,-2.752581
6805,120430.8,133.854,128.336,-2.757114
6817,120643.2,134.209,128.684,-2.752887
6829,120855.6,134.571,129.031,-2.758443
6841,121068,134.933,129.38,-2.758465
6853,121280.4,135.291,129.73,-2.771419
6865,121492.8,135.641,130.082,-2.774153
6877,121705.2,135.99,130.432,-2.773617
6889,121917.6,136.341,130.783,-2.78264
6901,122130,136.689,131.132,-2.77961
6913,122342.4,137.039,131.481,-2.766395
6925,122554.8,137.392,131.831,-2.774151
6937,122767.2,137.746,132.179,-2.782361
6949,122979.6,138.1,132.528,-2.779447
6961,123192,138.461,132.877,-2.777514
6973,123404.4,138.823,133.227,-2.792475
6985,123616.8,139.185,133.577,-2.791
6997,123829.2,139.533,133.929,-2.800631
7009,124041.6,139.882,134.279,-2.803098
7021,124254,140.235,134.63,-2.805632
7033,124466.4,140.592,134.982,-2.820854
7045,124678.8,140.941,135.333,-2.819776
7057,124891.2,141.286,135.685,-2.806121
7069,125103.6,141.635,136.034,-2.810269
7081,125316,141.991,136.383,-2.8096
7093,125528.4,142.352,136.733,-2.811927
7105,125740.8,142.712,137.082,-2.816821
7117,125953.2,143.07,137.433,-2.814843
7129,126165.6,143.42,137.784,-2.824905
7141,126378,143.769,138.133,-2.827399
7153,126590.4,144.124,138.484,-2.820598
7165,126802.8,144.486,138.835,-2.824375
7177,127015.2,144.846,139.187,-2.837797
7189,127227.6,145.199,139.54,-2.83761
7201,127440,145.546,139.892,-2.841149
7213,127652.4,145.895,140.244,-2.843455
7225,127864.8,146.244,140.595,-2.838279
7237,128077.2,146.597,140.946,-2.836933
7249,128289.6,146.955,141.297,-2.840211
7261,128502,147.319,141.648,-2.846563
7273,128714.4,147.676,142.001,-2.852073
7285,128926.8,148.021,142.354,-2.854511
7297,129139.2,148.371,142.706,-2.850113
7309,129351.6,148.72,143.058,-2.843225
7321,129564,149.072,143.409,-2.841535
7333,129776.4,149.429,143.76,-2.8458
7345,129988.8,149.79,144.11,-2.845924
7357,130201.2,150.149,144.463,-2.844949
7369,130413.6,150.501,144.816,-2.828371
7381,130626,150.85,145.169,-2.82633
7393,130838.4,151.205,145.521,-2.819796
7405,131050.8,151.561,145.873,-2.803275
7417,131263.2,151.914,146.225,-2.771808
7429,131475.6,152.267,146.577,-2.753572
7441,131688,152.62,146.93,-2.72023
7453,131900.4,152.97,147.282,-2.664232
7465,132112.8,153.326,147.634,-2.605198
7477,132325.2,153.683,147.986,-2.533438
7489,132537.6,154.043,148.339,-2.455501
7501,132750,154.401,148.693,-2.356314
7513,132962.4,154.755,149.047,-2.230347
7525,133174.8,155.104,149.401,-2.050853
7537,133387.2,155.453,149.754,-1.841447
7549,133599.6,155.808,150.108,-1.622629
7561,133812,156.167,150.46,-1.365316
7573,134024.4,156.528,150.815,-1.080033
7585,134236.8,156.878,151.17,-0.76118
7597,134449.2,157.226,151.525,-0.487392
7609,134661.6,157.577,151.879,-0.216372
7621,134874,157.933,152.233,0.042624
7633,135086.4,158.291,152.587,0.290306
7645,135298.8,158.649,152.942,0.4981
7657,135511.2,158.997,153.297,0.632985
7669,135723.6,159.344,153.652,0.714894
7681,135936,159.698,154.005,0.672073
7693,136148.4,160.057,154.359,0.410093
7705,136360.8,160.412,154.714,-0.058898
7717,136573.2,160.763,155.068,-0.673287
7729,136785.6,161.115,155.422,-1.324081
7741,136998,161.471,155.775,-1.892542
7753,137210.4,161.824,156.13,-2.314724
7765,137422.8,162.176,156.483,-2.54328
7777,137635.2,162.532,156.836,-2.660658
7789,137847.6,162.89,157.191,-2.708885
7801,138060,163.248,157.545,-2.742249
7813,138272.4,163.604,157.9,-2.749499
7825,138484.8,163.953,158.255,-2.771039
7837,138697.2,164.303,158.609,-2.781506
7849,138909.6,164.657,158.963,-2.82308
7861,139122,165.017,159.317,-2.811556
7873,139334.4,165.375,159.672,-2.799329
7885,139546.8,165.731,160.028,-2.761512
7897,139759.2,166.082,160.384,-2.769678
7909,139971.6,166.432,160.74,-2.821426
7921,140184,166.787,161.095,-2.829571
7933,140396.4,167.138,161.451,-2.85862
7945,140608.8,167.494,161.807,-2.827788
7957,140821.2,167.85,162.162,-2.806806
7969,141033.6,168.205,162.518,-2.830461
7981,141246,168.557,162.8739,-2.799816
7993,141458.4,168.907,163.23,-2.746123
8005,141670.8,169.259,163.585,-2.76608
8017,141883.2,169.609,163.941,-2.77973
8029,142095.6,169.96,164.295,-2.737033
8041,142308,170.317,164.648,-2.799501
8053,142520.4,170.677,165.004,-2.801284
8065,142732.8,171.035,165.358,-2.806779
8077,142945.2,171.388,165.713,-2.814468
8089,143157.6,171.743,166.069,-2.808301
8101,143370,172.098,166.425,-2.853244
8113,143582.4,172.451,166.78,-2.836316
8125,143794.8,172.804,167.136,-2.846908
8137,144007.2,173.16,167.491,-2.869551
8149,144219.6,173.516,167.848,-2.826167
8161,144432,173.864,168.203,-2.818687
8173,144644.4,174.213,168.559,-2.800204
8185,144856.8,174.568,168.914,-2.8609
8197,145069.2,174.924,169.269,-2.877388
8209,145281.6,175.277,169.624,-2.943294
8221,145494,175.629,169.979,-3.096975
8233,145706.4,175.984,170.334,-3.381015
8245,145918.8,176.338,170.688,-4.40329
8257,146131.2,176.693,171.042,-6.368873
8269,146343.6,177.049,171.397,-6.650013
8281,146556,177.408,171.752,-1.251422
8293,146768.4,177.762,172.107,1.042285
8305,146980.8,178.113,172.463,-0.262495
8317,147193.2,178.466,172.818,-1.679321
8329,147405.6,178.816,173.174,-2.400385
8341,147618,179.169,173.529,-2.656417
8353,147830.4,179.527,173.883,-2.801208
8365,148042.8,179.885,174.238,-2.865021
8377,148255.2,180.24,174.594,-2.911948
8389,148467.6,180.591,174.949,-2.950559
8401,148680,180.943,175.304,-3.119245
8413,148892.4,181.297,175.66,-3.779869
8425,149104.8,181.654,176.015,-7.396469
8437,149317.2,182.006,176.37,-18.6232
8449,149529.6,182.357,176.725,-10.3166
8461,149742,182.714,177.08,-23.2047
8473,149954.4,183.07,177.434,-11.8221
8485,150166.8,183.425,177.79,-6.297499
8497,150379.2,183.775,178.145,-4.354443
8509,150591.6,184.127,178.5,-3.505862
8521,150804,184.484,178.857,-3.209128
8533,151016.4,184.842,179.212,-3.014714
8545,151228.8,185.195,179.568,-2.950749
8557,151441.2,185.545,179.925,-3.004052
8569,151653.6,185.898,180.279,-2.977012
8581,151866,186.253,180.635,-2.954359
8593,152078.4,186.611,180.99,-2.885479
8605,152290.8,186.966,181.346,-2.978131
8617,152503.2,187.316,181.702,-2.953262
8629,152715.6,187.669,182.058,-2.949442
8641,152928,188.025,182.414,-3.01929
8653,153140.4,188.382,182.77,-3.057416
8665,153352.8,188.736,183.127,-3.12358
8677,153565.2,189.086,183.482,-3.137337
8689,153777.6,189.433,183.839,-3.088393
8701,153990,189.786,184.194,-3.038159
8713,154202.4,190.144,184.5483,-3.086081
8725,154414.8,190.504,184.903,-3.068911
8737,154627.2,190.862,185.259,-3.054045
8749,154839.6,191.214,185.616,-3.059757
8761,155052,191.563,185.972,-3.093975
8773,155264.4,191.915,186.327,-3.146556
8785,155476.8,192.274,186.682,-3.117409
8797,155689.2,192.631,187.039,-3.078705
8809,155901.6,192.982,187.394,-3.04954
8821,156114,193.333,187.751,-3.054156
8833,156326.4,193.687,188.106,-3.044968
8845,156538.8,194.045,188.462,-3.039293
8857,156751.2,194.4,188.819,-2.983438
8869,156963.6,194.75,189.175,-2.935554
8881,157176,195.101,189.531,-2.940973
8893,157388.4,195.459,189.886,-2.994166
8905,157600.8,195.817,190.243,-3.087967
8917,157813.2,196.169,190.599,-3.056314
8929,158025.6,196.522,190.955,-3.032546
8941,158238,196.876,191.313,-2.87357
8953,158450.4,197.232,191.669,-2.886911
8965,158662.8,197.582,192.026,-3.078222
8977,158875.2,197.931,192.382,-3.05046
8989,159087.6,198.285,192.737,-2.963858
9001,159300,198.644,193.093,-3.016262
9013,159512.4,199.001,193.449,-3.012314
9025,159724.8,199.353,193.805,-3.057868
9037,159937.2,199.706,194.161,-3.1262
9049,160149.6,200.056,194.518,-3.032789
9061,160362,200.406,194.873,-2.864465
9073,160574.4,200.758,195.227,-2.903442
9085,160786.8,201.116,195.581,-2.857832
9097,160999.2,201.477,195.936,-2.892941
9109,161211.6,201.833,196.291,-2.800918
9121,161424,202.184,196.647,-2.802213
9133,161636.4,202.534,197.001,-2.922498
9145,161848.8,202.889,197.356,-3.014036
9157,162061.2,203.246,197.711,-2.941176
9169,162273.6,203.6,198.067,-2.954882
9181,162486,203.953,198.422,-2.910825
9193,162698.4,204.307,198.7759,-2.896311
9205,162910.8,204.663,199.131,-2.938758
9217,163123.2,205.017,199.487,-2.837897
9229,163335.6,205.365,199.841,-2.865529
9241,163548,205.719,200.196,-2.93125
9253,163760.4,206.077,200.551,-2.983516
9265,163972.8,206.433,200.906,-2.916409
9277,164185.2,206.785,201.261,-2.850628
9289,164397.6,207.14,201.615,-2.816723
9301,164610,207.495,201.971,-2.868417
9313,164822.4,207.85,202.327,-2.758322
9325,165034.8,208.205,202.6826,-2.810656
9337,165247.2,208.554,203.038,-2.920197
9349,165459.6,208.902,203.393,-2.947697
9361,165672,209.258,203.747,-2.884277
9373,165884.4,209.617,204.102,-2.775233
9385,166096.8,209.976,204.457,-2.968396
9397,166309.2,210.327,204.813,-2.946037
9409,166521.6,210.678,205.168,-2.783149
9421,166734,211.034,205.523,-2.863498
9433,166946.4,211.391,205.878,-2.877753
9445,167158.8,211.744,206.233,-2.974285
9457,167371.2,212.094,206.589,-2.96551
9469,167583.6,212.448,206.944,-2.967163
9481,167796,212.807,207.3,-2.831219
9493,168008.4,213.165,207.656,-2.911988
9505,168220.8,213.52,208.012,-2.964295
9517,168433.2,213.873,208.369,-2.905936
9529,168645.6,214.224,208.726,-2.976947
9541,168858,214.576,209.083,-2.947016
9553,169070.4,214.929,209.44,-2.930822
9565,169282.8,215.28,209.796,-3.06971
9577,169495.2,215.636,210.153,-3.0425
9589,169707.6,215.991,210.509,-3.064273
9601,169920,216.346,210.866,-2.998637
9613,170132.4,216.703,211.222,-2.934396
9625,170344.8,217.06,211.579,-2.788141
9637,170557.2,217.413,211.937,-2.901456
9649,170769.6,217.767,212.295,-2.801964
9661,170982,218.12,212.652,-2.728953
9673,171194.4,218.475,213.011,-2.804944
9685,171406.8,218.827,213.369,-2.89113
9697,171619.2,219.18,213.727,-3.112868
9709,171831.6,219.532,214.085,-3.043649
9721,172044,219.883,214.443,-3.117336
9733,172256.4,220.237,214.8,-3.074999
9745,172468.8,220.59,215.156,-2.997504
9757,172681.2,220.944,215.514,-2.908941
9769,172893.6,221.299,215.871,-2.940081
9781,173106,221.653,216.227,-3.022382
9793,173318.4,222.007,216.584,-3.057315
9805,173530.8,222.363,216.941,-2.809066
9817,173743.2,222.718,217.298,-2.923405
9829,173955.6,223.073,217.655,-2.907776
9841,174168,223.429,218.012,-2.871807
9853,174380.4,223.785,218.369,-2.980716
9865,174592.8,224.1397,218.727,-3.083332
9877,174805.2,224.492,219.085,-3.11381
9889,175017.6,224.846,219.444,-3.064871
9901,175230,225.2,219.802,-3.058677
9913,175442.4,225.553,220.159,-3.056817
9925,175654.8,225.906,220.518,-3.074965
9937,175867.2,226.26,220.876,-3.105773
9949,176079.6,226.613,221.234,-2.95006
9961,176292,226.962,221.591,-3.123314
9973,176504.4,227.312,221.948,-3.20451
9985,176716.8,227.669,222.303,-3.165634
9997,176929.2,228.025,222.66,-3.222933
10009,177141.6,228.38,223.017,-2.918672
10021,177354,228.734,223.373,-2.885587
10033,177566.4,229.088,223.729,-2.856991
10045,177778.8,229.439,224.085,-2.831647
10057,177991.2,229.792,224.44,-2.961447
10069,178203.6,230.149,224.797,-3.019111
10081,178416,230.506,225.152,-3.196767
10093,178628.4,230.864,225.508,-3.402322
10105,178840.8,231.22,225.865,-3.288326
10117,179053.2,231.572,226.223,-3.184176
10129,179265.6,231.921,226.58,-3.159204
10141,179478,232.272,226.936,-3.18316
10153,179690.4,232.625,227.292,-3.179889
10165,179902.8,232.979,227.648,-3.005289
10177,180115.2,233.335,228.003,-3.177581
10189,180327.6,233.688,228.359,-3.221554
10201,180540,234.042,228.714,-3.22326
10213,180752.4,234.394,229.07,-3.229487
10225,180964.8,234.752,229.4252,-3.306221
10237,181177.2,235.108,229.781,-3.267022
10249,181389.6,235.462,230.137,-3.276318
10261,181602,235.818,230.493,-3.415479
10273,181814.4,236.173,230.85,-3.532612
10285,182026.8,236.525,231.206,-3.446534
10297,182239.2,236.876,231.561,-3.545942
10309,182451.6,237.228,231.917,-3.34587
10321,182664,237.584,232.274,-3.14142
10333,182876.4,237.94,232.629,-3.304303
10345,183088.8,238.299,232.986,-3.250434
10357,183301.2,238.653,233.342,-3.33127
10369,183513.6,239.006,233.699,-3.446985
10381,183726,239.356,234.056,-3.411457
10393,183938.4,239.706,234.412,-3.448093
10405,184150.8,240.06,234.767,-3.443269
10417,184363.2,240.416,235.124,-3.454476
10429,184575.6,240.773,235.481,-3.585087
10441,184788,241.129,235.837,-3.648844
10453,185000.4,241.485,236.195,-3.710186
10465,185212.8,241.834,236.551,-3.753607
10477,185425.2,242.183,236.908,-3.740338
10489,185637.6,242.534,237.263,-3.540048
10501,185850,242.889,237.619,-3.721418
10513,186062.4,243.244,237.974,-3.942084
10525,186274.8,243.6,238.33,-3.972411
10537,186487.2,243.955,238.686,-4.071968
10549,186699.6,244.309,239.041,-4.02593
10561,186912,244.665,239.397,-3.957544
10573,187124.4,245.02,239.752,-3.787578
10585,187336.8,245.378,240.107,-3.83009
10597,187549.2,245.734,240.464,-3.990783
10609,187761.6,246.089,240.821,-3.916733
10621,187974,246.44,241.178,-3.860617
10633,188186.4,246.788,241.534,-3.879905
10645,188398.8,247.139,241.89,-4.018887
10657,188611.2,247.493,242.246,-4.19916
10669,188823.6,247.848,242.603,-4.054748
10681,189036,248.202,242.958,-3.985077
10693,189248.4,248.561,243.313,-4.119688
10705,189460.8,248.916,243.67,-4.191202
10717,189673.2,249.27,244.026,-4.44049
10729,189885.6,249.625,244.382,-4.577905
10741,190098,249.98,244.739,-4.551214
10753,190310.4,250.333,245.096,-4.523443
10765,190522.8,250.684,245.453,-4.69341
10777,190735.2,251.034,245.809,-4.71164
10789,190947.6,251.386,246.166,-4.855897
10801,191160,251.74,246.521,-4.936557
10813,191372.4,252.094,246.876,-4.857038
10825,191584.8,252.452,247.231,-4.857021
10837,191797.2,252.807,247.587,-5.098881
10849,192009.6,253.161,247.942,-5.264799
10861,192222,253.518,248.298,-5.166545
10873,192434.4,253.874,248.655,-5.230652
10885,192646.8,254.226,249.012,-5.471596
10897,192859.2,254.577,249.368,-5.530418
10909,193071.6,254.931,249.722,-5.682628
10921,193284,255.282,250.079,-5.791273
10933,193496.4,255.636,250.435,-5.865755
10945,193708.8,255.992,250.79,-5.850331
10957,193921.2,256.347,251.146,-5.960668
10969,194133.6,256.704,251.502,-6.102938
10981,194346,257.057,251.859,-6.297507
10993,194558.4,257.411,252.215,-6.423936
11005,194770.8,257.765,252.571,-6.631452
11017,194983.2,258.118,252.928,-6.741968
11029,195195.6,258.472,253.284,-6.866486
11041,195408,258.826,253.64,-7.00114
11053,195620.4,259.181,253.997,-7.189932
11065,195832.8,259.534,254.353,-7.382948
11077,196045.2,259.886,254.709,-7.480965
11089,196257.6,260.237,255.064,-7.691609
11101,196470,260.591,255.42,-7.974527
11113,196682.4,260.945,255.775,-8.070169
11125,196894.8,261.301,256.13,-8.360896
11137,197107.2,261.658,256.485,-8.607444
11149,197319.6,262.019,256.842,-8.839266
11161,197532,262.375,257.198,-9.079444
11173,197744.4,262.726,257.555,-9.383095
11185,197956.8,263.074,257.912,-9.829165
11197,198169.2,263.424,258.268,-10.1459
11209,198381.6,263.775,258.624,-10.476
11221,198594,264.129,258.979,-10.7144
11233,198806.4,264.483,259.333,-11.019
11245,199018.8,264.836,259.688,-11.4781
11257,199231.2,265.194,260.042,-11.9539
11269,199443.6,265.553,260.398,-12.5536
11281,199656,265.911,260.752,-12.981
11293,199868.4,266.264,261.108,-13.55245
11305,200080.8,266.617,261.465,-14.1763
11317,200293.2,266.966,261.821,-14.8554
11329,200505.6,267.315,262.176,-15.6165
11341,200718,267.669,262.531,-16.4273
11353,200930.4,268.024,262.885,-17.2426
11365,201142.8,268.379,263.24,-18.0824
11377,201355.2,268.7347,263.594,-19.09374
11389,201567.6,269.091,263.949,-20.1366
11401,201780,269.45,264.305,-21.3757
11413,201992.4,269.806,264.66,-22.7105
11425,202204.8,270.16,265.016,-24.2182
11437,202417.2,270.513,265.372,-25.8286
11449,202629.6,270.866,265.729,-27.578
11461,202842,271.219,266.085,-29.5134
11473,203054.4,271.571,266.441,-31.6897
11485,203266.8,271.921,266.797,-33.9556
11497,203479.2,272.271,267.153,-36.40503
11509,203691.6,272.624,267.507,-39.3896
11521,203904,272.979,267.861,-42.6241
11533,204116.4,273.335,268.215,-46.0573
11545,204328.8,273.69,268.57,-49.6466
11557,204541.2,274.044,268.923,-53.2634
11569,204753.6,274.399,269.278,-56.6083
11581,204966,274.752,269.631,-59.2806
11593,205178.4,275.105,269.984,-61.786
11605,205390.8,275.461,270.338,-61.9782
11617,205603.2,275.817,270.692,-61.9479
11629,205815.6,276.173,271.046,-61.7793
11641,206028,276.525,271.402,-55.5855
11653,206240.4,276.878,271.756,-44.788
11665,206452.8,277.231,272.111,-26.7589
11677,206665.2,277.588,272.467,-14.7229
11689,206877.6,277.944,272.824,-9.752373
11701,207090,278.298,273.18,-7.649761
11713,207302.4,278.649,273.537,-6.72057
11725,207514.8,279.002,273.893,-6.335171
11737,207727.2,279.356,274.25,-6.174921
11749,207939.6,279.709,274.606,-6.103828
11761,208152,280.066,274.961,-6.097427
11773,208364.4,280.42,275.317,-6.057319
11785,208576.8,280.774,275.673,-6.028722
11797,208789.2,281.125,276.029,-6.023653
11809,209001.6,281.479,276.384,-6.054606
11821,209214,281.834,276.741,-6.037684
11833,209426.4,282.191,277.096,-6.009888
11845,209638.8,282.548,277.453,-6.019032
11857,209851.2,282.9,277.809,-6.026675
11869,210063.6,283.252,278.166,-6.019185
11881,210276,283.605,278.522,-6.030095
11893,210488.4,283.96,278.877,-6.024353
11905,210700.8,284.313,279.234,-6.034598
11917,210913.2,284.667,279.589,-6.034896
11929,211125.6,285.02,279.945,-6.034631
11941,211338,285.374,280.3,-5.99517
11953,211550.4,285.728,280.656,-5.979903
11965,211762.8,286.084,281.011,-5.995714
11977,211975.2,286.438,281.367,-5.993203
11989,212187.6,286.791,281.722,-6.008895
12001,212400,287.145,282.078,-6.002298
12013,212612.4,287.5,282.433,-6.01973
12025,212824.8,287.855,282.789,-6.021691
12037,213037.2,288.209,283.144,-6.024812
12049,213249.6,288.562,283.5,-6.034292
12061,213462,288.917,283.856,-6.019648
12073,213674.4,289.267,284.211,-6.015058
12085,213886.8,289.615,284.566,-6.011241
12097,214099.2,289.969,284.921,-6.016188
12109,214311.6,290.327,285.275,-6.013908
12121,214524,290.681,285.628,-5.998726
12133,214736.4,291.034,285.981,-5.982155
12145,214948.8,291.388,286.335,-5.973
12157,215161.2,291.744,286.689,-5.964465
12169,215373.6,292.101,287.043,-5.957437
12181,215586,292.451,287.396,-5.937728
12193,215798.4,292.802,287.75,-5.933169
12205,216010.8,293.158,288.103,-5.925748
12217,216223.2,293.514,288.455,-5.914274
12229,216435.6,293.869,288.808,-5.898117
12241,216648,294.224,289.161,-5.892797
12253,216860.4,294.579,289.516,-5.886568
12265,217072.8,294.936,289.869,-5.892343
12277,217285.2,295.288,290.223,-5.88416
12289,217497.6,295.635,290.577,-5.873624
12301,217710,295.987,290.929,-5.860282
12313,217922.4,296.342,291.281,-5.836032
12325,218134.8,296.702,291.632,-5.803919
12337,218347.2,297.056,291.985,-5.791913
12349,218559.6,297.407,292.336,-5.796781
12361,218772,297.761,292.687,-5.804247
12373,218984.4,298.12,293.037,-5.803682
12385,219196.8,298.471,293.388,-5.796466
12397,219409.2,298.819,293.738,-5.779995
12409,219621.6,299.171,294.086,-5.770185
12421,219834,299.532,294.433,-5.739932
12433,220046.4,299.886,294.78,-5.719468
12445,220258.8,300.239,295.13,-5.711912
12457,220471.2,300.593,295.482,-5.729052
12469,220683.6,300.952,295.835,-5.742271
12481,220896,301.3,296.191,-5.766821
12493,221108.4,301.652,296.545,-5.780295
12505,221320.8,302.009,296.9,-5.792625
12517,221533.2,302.3683,297.255,-5.793004
12529,221745.6,302.716,297.61,-5.792089
12541,221958,303.067,297.964,-5.787359
12553,222170.4,303.426,298.318,-5.779683
12565,222382.8,303.787,298.671,-5.765976
12577,222595.2,304.142,299.027,-5.768424
12589,222807.6,304.497,299.383,-5.773141
12601,223020,304.848,299.741,-5.786652
12613,223232.4,305.198,300.096,-5.789547
12625,223444.8,305.54,300.45,-5.781365
12637,223657.2,305.893,300.802,-5.761726
12649,223869.6,306.252,301.154,-5.747906
12661,224082,306.612,301.506,-5.727018
12673,224294.4,306.964,301.86,-5.716256
12685,224506.8,307.319,302.212,-5.709412
12697,224719.2,307.675,302.565,-5.708415
12709,224931.6,308.032,302.918,-5.701762
12721,225144,308.382,303.271,-5.691288
12733,225356.4,308.731,303.624,-5.672771
12745,225568.8,309.087,303.976,-5.6772
12757,225781.2,309.448,304.329,-5.669
12769,225993.6,309.8,304.682,-5.669578
12781,226206,310.149,305.035,-5.663797
12793,226418.4,310.505,305.388,-5.662354
12805,226630.8,310.864,305.741,-5.655048
12817,226843.2,311.216,306.095,-5.656012
12829,227055.6,311.566,306.449,-5.654975
12841,227268,311.919,306.803,-5.646926
12853,227480.4,312.279,307.156,-5.644064
12865,227692.8,312.631,307.51,-5.634731
12877,227905.2,312.982,307.863,-5.635809
12889,228117.6,313.338,308.217,-5.626684
12901,228330,313.697,308.571,-5.623909
12913,228542.4,314.048,308.926,-5.616308
12925,228754.8,314.397,309.278,-5.617144
12937,228967.2,314.752,309.632,-5.602422
12949,229179.6,315.11,309.985,-5.598755
12961,229392,315.465,310.338,-5.592216
12973,229604.4,315.8156,310.692,-5.587893
12985,229816.8,316.171,311.045,-5.578366
12997,230029.2,316.527,311.399,-5.574731
13009,230241.6,316.884,311.752,-5.571325
13021,230454,317.231,312.106,-5.566274
13033,230666.4,317.585,312.46,-5.559235
13045,230878.8,317.942,312.814,-5.552844
13057,231091.2,318.298,313.1691,-5.55184
13069,231303.6,318.644,313.522,-5.55347
13081,231516,318.996,313.874,-5.537029
13093,231728.4,319.216,314.224,-5.52897
13105,231940.8,319.203,314.552,-5.454286
13117,232153.2,319.181,314.852,-5.241524
13129,232365.6,319.167,315.125,-4.876355
13141,232578,319.167,315.374,-4.435902
13153,232790.4,319.169,315.602,-3.977359
13165,233002.8,319.161,315.809,-3.535104
13177,233215.2,319.153,315.999,-3.122875
13189,233427.6,319.155,316.17,-2.725615
13201,233640,319.16,316.328,-2.364153
13213,233852.4,319.157,316.472,-2.033475
13225,234064.8,319.154,316.603,-1.741071
13237,234277.2,319.156,316.723,-1.465644
13249,234489.6,319.159,316.832,-1.215987
13261,234702,319.152,316.931,-0.99558
13273,234914.4,319.144,317.022,-0.782737
13285,235126.8,319.147,317.103,-0.580604
13297,235339.2,319.154,317.178,-0.39268
13309,235551.6,319.147,317.246,-0.236373
13321,235764,319.143,317.307,-0.086357
13333,235976.4,319.147,317.362,0.049645
13345,236188.8,319.155,317.413,0.17862
13357,236401.2,319.147,317.461,0.282461
13369,236613.6,319.141,317.501,0.383207
13381,236826,319.144,317.538,0.491691
13393,237038.4,319.149,317.57,0.57802
13405,237250.8,319.15,317.602,0.660119
13417,237463.2,319.144,317.63,0.715587
13429,237675.6,319.145,317.655,0.790032
13441,237888,319.151,317.677,0.85418
13453,238100.4,319.157,317.699,0.914303
13465,238312.8,319.158,317.719,0.956108
13477,238525.2,319.159,317.738,0.98585
13489,238737.6,319.143,317.755,0.999812
13501,238950,319.126,317.768,1.017271
13513,239162.4,319.129,317.776,1.087581
13525,239374.8,319.138,317.784,1.153914
13537,239587.2,319.145,317.791,1.197315
13549,239799.6,319.136,317.797,1.24694
13561,240012,319.137,317.8,1.28819
13573,240224.4,319.144,317.804,1.302548
13585,240436.8,319.153,317.809,1.301008
13597,240649.2,319.148,317.813,1.310702
13609,240861.6,319.135,317.815,1.342761
13621,241074,319.138,317.815,1.362208
13633,241286.4,319.147,317.815,1.365741
13645,241498.8,319.157,317.817,1.350995
13657,241711.2,319.145,317.819,1.364291
13669,241923.6,319.133,317.819,1.374936
13681,242136,319.136,317.817,1.392456
13693,242348.4,319.145,317.815,1.401166
13705,242560.8,319.156,317.814,1.400131
13717,242773.2,319.147,317.815,1.391035
13729,242985.6,319.143,317.814,1.381579
13741,243198,319.148,317.813,1.380111
13753,243410.4,319.159,317.813,1.368753
13765,243622.8,319.16,317.814,1.354637
13777,243835.2,319.161,317.818,1.337487
13789,244047.6,319.153,317.82,1.331179
13801,244260,319.153,317.822,1.329005
13813,244472.4,319.134,317.822,1.336285
13825,244684.8,319.116,317.818,1.333526
13837,244897.2,319.124,317.812,1.377649
13849,245109.6,319.138,317.807,1.410119
13861,245322,319.154,317.804,1.426886
13873,245534.4,319.163,317.803,1.418714
13885,245746.8,319.154,317.803,1.379947
13897,245959.2,319.149,317.802,1.35753
13909,246171.6,319.151,317.801,1.356271
13921,246384,319.157,317.8,1.356997
13933,246596.4,319.14,317.8,1.329983
13945,246808.8,319.136,317.797,1.335038
13957,247021.2,319.142,317.794,1.359051
13969,247233.6,319.152,317.792,1.375205
13981,247446,319.149,317.791,1.367054
13993,247658.4,319.151,317.79,1.362723
14005,247870.8,319.157,317.788,1.360131
14017,248083.2,319.157,317.79,1.351145
14029,248295.6,319.139,317.788,1.317753
14041,248508,319.141,317.786,1.332899
14053,248720.4,319.149,317.784,1.349998
14065,248932.8,319.159,317.783,1.363703
14077,249145.2,319.164,317.785,1.359043
14089,249357.6,319.159,317.787,1.331278
14101,249570,319.131,317.787,1.287842
14113,249782.4,319.12,317.783,1.30254
14125,249994.8,319.133,317.777,1.353329
14137,250207.2,319.145,317.773,1.378312
14149,250419.6,319.157,317.771,1.381402
14161,250632,319.166,317.772,1.375331
14173,250844.4,319.154,317.774,1.33722
14185,251056.8,319.145,317.773,1.307309
14197,251269.2,319.146,317.772,1.310804
14209,251481.6,319.156,317.771,1.320892
14221,251694,319.16,317.771,1.323726
14233,251906.4,319.161,317.774,1.317508
14245,252118.8,319.163,317.776,1.309427
14257,252331.2,319.152,317.779,1.286246
14269,252543.6,319.129,317.778,1.267384
14281,252756,319.131,317.775,1.306986
14293,252968.4,319.142,317.773,1.34382
14305,253180.8,319.155,317.771,1.3585
14317,253393.2,319.154,317.77,1.349314
14329,253605.6,319.137,317.769,1.321754
14341,253818,319.141,317.766,1.336778
14353,254030.4,319.153,317.764,1.350321
14365,254242.8,319.16,317.763,1.352601
14377,254455.2,319.155,317.764,1.338321
14389,254667.6,319.152,317.763,1.328027
14401,254880,319.156,317.764,1.326451
14413,255092.4,319.16,317.766,1.319997
14425,255304.8,319.164,317.768,1.322065
14437,255517.2,319.157,317.771,1.303722
14449,255729.6,319.158,317.774,1.301238
14461,255942,319.163,317.777,1.288245
14473,256154.4,319.17,317.781,1.261035
14485,256366.8,319.155,317.787,1.253717
14497,256579.2,319.143,317.788,1.268905
14509,256791.6,319.147,317.79,1.290832
14521,257004,319.154,317.791,1.297283
14533,257216.4,319.164,317.794,1.289169
14545,257428.8,319.167,317.8,1.265648
14557,257641.2,319.149,317.804,1.274954
14569,257853.6,319.144,317.806,1.284426
14581,258066,319.147,317.807,1.301336
14593,258278.4,319.156,317.81,1.291624
14605,258490.8,319.165,317.814,1.274012
14617,258703.2,319.166,317.818,1.258369
14629,258915.6,319.164,317.824,1.251871
14641,259128,319.168,317.83,1.251219
14653,259340.4,319.174,317.837,1.275908
14665,259552.8,319.177,317.846,1.267096
14677,259765.2,319.172,317.856,1.238623
14689,259977.6,319.169,317.865,1.223038
14701,260190,319.159,317.874,1.218833
14713,260402.4,319.155,317.882,1.222308
14725,260614.8,319.159,317.889,1.232608
14737,260827.2,319.165,317.896,1.24717
14749,261039.6,319.163,317.905,1.249672
14761,261252,319.161,317.913,1.251762
14773,261464.4,319.158,317.921,1.243886
14785,261676.8,319.162,317.928,1.250134
14797,261889.2,319.158,317.936,1.255786
14809,262101.6,319.157,317.943,1.261523
14816,262225.5,319.158,317.947,1.263707