File: z_unorganized_archive/i_data/46C/H2O-NH3_4.6844g.csv
H2O-NH3 4wt% Specific Heat - Large HF 28Oct22,,,,
Creation Date : 10/31/2022 3:01:18 PM,,,,
User : admin,,,,
,,,,
HeatFlow :,,,,
 Initial Mass : 4684.4 mg,,,,
 Molar Mass : 17 g/mol,,,,
,,,,
Index,Time(s),Furnace Temperature(K),Sample Temperature(K),HeatFlow(mW)
1,0,318.962,319.009,-1768.14
13,212.4,318.662,318.942,-967.958
25,424.8,318.416,318.885,-482.673
37,637.2,318.191,318.823,-239.819
49,849.6,317.977,318.753,-118.127
61,1062,317.76,318.672,-56.91225
73,1274.4,317.519,318.58,-25.8361
85,1486.8,317.228,318.474,-9.645543
97,1699.2,316.866,318.348,-0.765066
109,1911.6,316.408,318.198,4.631388
121,2124,315.824,318.017,8.659384
133,2336.4,315.058,317.792,12.12127
145,2548.8,314.068,317.509,15.7976
157,2761.2,312.845,317.154,20.309
169,2973.6,311.405,316.711,25.9452
181,3186,309.802,316.172,32.73955
193,3398.4,308.088,315.532,40.5376
205,3610.8,306.315,314.794,49.1076
217,3823.2,304.514,313.963,58.0108
229,4035.6,302.703,313.047,66.9119
241,4248,300.897,312.052,75.5144
253,4460.4,299.106,310.99,83.6132
265,4672.8,297.338,309.865,91.08038
277,4885.2,295.596,308.687,97.8489
289,5097.6,293.884,307.463,103.882
301,5310,292.2032,306.202,109.1715
313,5522.4,290.558,304.91,113.748
325,5734.8,288.947,303.593,117.575
337,5947.2,287.37,302.255,120.7
349,6159.6,285.818,300.901,123.348
361,6372,284.292,299.533,125.523
373,6584.4,282.79,298.156,127.229
385,6796.8,281.31,296.774,128.518
397,7009.2,279.852,295.389,129.502
409,7221.6,278.414,294.004,130.156
421,7434,276.996,292.627,130.29
433,7646.4,275.599,291.261,129.871
445,7858.8,274.214,289.885,129.902
457,8071.2,272.837,288.508,130.096
469,8283.6,271.47,287.133,130.205
481,8496,270.117,285.761,130.174
493,8708.4,268.781,284.395,130.081
505,8920.8,267.463,283.035,129.793
517,9133.2,266.157,281.682,129.42
529,9345.6,264.8639,280.337,128.89
541,9558,263.584,279,128.315
553,9770.4,262.312,277.673,127.672
565,9982.8,261.046,276.351,127.065
577,10195.2,259.794,275.04,126.338
589,10407.6,258.558,273.736,125.655
601,10620,257.334,272.443,124.94
613,10832.4,256.117,271.159,124.091
625,11044.8,254.914,269.883,123.468
637,11257.2,253.722,268.618,122.735
649,11469.6,252.545,267.362,121.979
661,11682,251.375,266.115,121.302
673,11894.4,250.217,264.879,120.523
685,12106.8,249.076,263.652,119.596
697,12319.2,247.949,262.4366,118.959
709,12531.6,246.834,261.231,118.166
721,12744,245.723,260.036,117.243
733,12956.4,244.614,258.851,116.439
745,13168.8,243.518,257.674,115.845
757,13381.2,242.438,256.508,114.804
769,13593.6,241.373,255.364,1190.25
781,13806,240.327,254.266,1277.96
793,14018.4,239.298,253.165,1075.78
805,14230.8,238.282,252.062,780.978
817,14443.2,237.278,250.958,527.818
829,14655.6,236.282,249.859,356.069
841,14868,235.292,248.765,250.995
853,15080.4,234.308,247.68,188.211
865,15292.8,233.332,246.605,150.965
877,15505.2,232.36,245.538,128.129
889,15717.6,231.394,244.48,113.794
901,15930,230.434,243.432,104.306
913,16142.4,229.48,242.394,96.908
925,16354.8,228.534,241.363,91.6866
937,16567.2,227.595,240.343,87.7251
949,16779.6,226.663,239.33,83.5143
961,16992,225.738,238.326,80.0548
973,17204.4,224.82,237.331,77.1562
985,17416.8,223.91,236.343,74.3285
997,17629.2,223.006,235.363,72.3969
1009,17841.6,222.109,234.391,70.0477
1021,18054,221.22,233.429,67.5444
1033,18266.4,220.337,232.472,65.8175
1045,18478.8,219.462,231.524,63.6085
1057,18691.2,218.595,230.583,61.7762
1069,18903.6,217.733,229.65,59.8548
1081,19116,216.879,228.724,58.154
1093,19328.4,216.031,227.806,56.5278
1105,19540.8,215.19,226.895,54.8069
1117,19753.2,214.353,225.991,53.5313
1129,19965.6,213.522,225.095,52.4323
1141,20178,212.698,224.205,51.332
1153,20390.4,211.881,223.321,50.4744
1165,20602.8,211.07,222.444,49.8859
1177,20815.2,210.263,221.574,48.7113
1189,21027.6,209.462,220.711,47.58835
1201,21240,208.667,219.854,46.5892
1213,21452.4,207.878,219.003,45.5736
1225,21664.8,207.095,218.159,44.99584
1237,21877.2,206.318,217.321,44.0544
1249,22089.6,205.547,216.49,43.4657
1261,22302,204.782,215.665,42.2389
1273,22514.4,204.022,214.846,41.3992
1285,22726.8,203.268,214.031,40.7187
1297,22939.2,202.521,213.223,39.8952
1309,23151.6,201.779,212.421,39.18667
1321,23364,201.043,211.625,38.7291
1333,23576.4,200.312,210.835,38.1706
1345,23788.8,199.584,210.05,37.66487
1357,24001.2,198.862,209.272,37.0276
1369,24213.6,198.145,208.499,36.5381
1381,24426,197.432,207.73,35.9319
1393,24638.4,196.724,206.968,35.3185
1405,24850.8,196.023,206.211,34.5374
1417,25063.2,195.325,205.459,33.861
1429,25275.6,194.632,204.713,33.6965
1441,25488,193.944,203.972,33.3931
1453,25700.4,193.265,203.235,32.9104
1465,25912.8,192.59,202.505,31.9842
1477,26125.2,191.921,201.78,31.8716
1489,26337.6,191.257,201.059,31.3682
1501,26550,190.598,200.345,30.9825
1513,26762.4,189.943,199.636,30.3078
1525,26974.8,189.292,198.931,30.036
1537,27187.2,188.646,198.231,30.066
1549,27399.6,188.004,197.537,29.6548
1561,27612,187.366,196.847,28.911
1573,27824.4,186.733,196.162,28.6617
1585,28036.8,186.104,195.483,28.561
1597,28249.2,185.481,194.807,28.0359
1609,28461.6,184.863,194.136,27.6604
1621,28674,184.248,193.47,27.2398
1633,28886.4,183.638,192.809,26.8493
1645,29098.8,183.032,192.153,27.0585
1657,29311.2,182.428,191.501,26.5185
1669,29523.6,181.829,190.852,25.931
1681,29736,181.235,190.21,25.3102
1693,29948.4,180.645,189.571,25.7011
1705,30160.8,180.057,188.937,25.1222
1717,30373.2,179.471,188.306,24.4539
1729,30585.6,178.888,187.679,24.2173
1741,30798,178.31,187.057,24.153
1753,31010.4,177.74,186.44,23.7507
1765,31222.8,177.172,185.826,23.60362
1777,31435.2,176.602,185.215,22.5321
1789,31647.6,176.028,184.608,22.2507
1801,31860,175.451,184.004,22.2495
1813,32072.4,174.879,183.403,22.1585
1825,32284.8,174.313,182.804,21.9678
1837,32497.2,173.758,182.209,22.2625
1849,32709.6,173.209,181.618,22.0403
1861,32922,172.665,181.031,21.6726
1873,33134.4,172.123,180.447,21.6799
1885,33346.8,171.585,179.867,21.1
1897,33559.2,171.048,179.29,21.1114
1909,33771.6,170.511,178.716,20.6197
1921,33984,169.97,178.146,20.5324
1933,34196.4,169.429,177.579,20.2881
1945,34408.8,168.886,177.014,20.1015
1957,34621.2,168.344,176.451,20.0348
1969,34833.6,167.801,175.889,19.7967
1981,35046,167.258,175.33,19.5604
1993,35258.4,166.718,174.772,19.6678
2005,35470.8,166.179,174.217,19.9454
2017,35683.2,165.646,173.663,19.3252
2029,35895.6,165.119,173.112,19.3389
2041,36108,164.592,172.563,19.3138
2053,36320.4,164.067,172.015,19.3554
2065,36532.8,163.539,171.47,19.3938
2077,36745.2,163.006,170.926,18.8843
2089,36957.6,162.473,170.384,19.2498
2101,37170,161.941,169.844,19.3355
2113,37382.4,161.412,169.303,19.0982
2125,37594.8,160.889,168.765,18.7742
2137,37807.2,160.368,168.228,18.5052
2149,38019.6,159.852,167.693,18.3152
2161,38232,159.34,167.16,18.27867
2173,38444.4,158.833,166.63,18.08717
2185,38656.8,158.329,166.101,17.83706
2197,38869.2,157.832,165.575,18.1159
2209,39081.6,157.343,165.051,17.9918
2221,39294,156.858,164.53,17.8441
2233,39506.4,156.379,164.013,17.4185
2245,39718.8,155.907,163.499,17.35439
2257,39931.2,155.44,162.988,17.3708
2269,40143.6,154.974,162.481,17.2768
2281,40356,154.512,161.977,17.0036
2293,40568.4,154.056,161.477,16.8049
2305,40780.8,153.604,160.98,16.429
2317,40993.2,153.155,160.486,16.0623
2329,41205.6,152.715,159.995,16.1747
2341,41418,152.282,159.51,16.2064
2353,41630.4,151.85,159.027,15.8805
2365,41842.8,151.422,158.549,15.5891
2377,42055.2,150.995,158.075,15.9011
2389,42267.6,150.57,157.605,15.5686
2401,42480,150.1519,157.137,15.2018
2413,42692.4,149.735,156.673,15.1831
2425,42904.8,149.32,156.213,14.9239
2437,43117.2,148.907,155.757,14.7701
2449,43329.6,148.496,155.303,14.6566
2461,43542,148.084,154.853,14.6217
2473,43754.4,147.674,154.406,14.4443
2485,43966.8,147.265,153.96,14.2843
2497,44179.2,146.861,153.518,14.1339
2509,44391.6,146.459,153.079,13.9028
2521,44604,146.058,152.643,13.6102
2533,44816.4,145.659,152.209,13.5624
2545,45028.8,145.261,151.777,13.4617
2557,45241.2,144.874,151.349,13.559
2569,45453.6,144.494,150.924,13.4978
2581,45666,144.122,150.502,13.3979
2593,45878.4,143.758,150.084,13.2343
2605,46090.8,143.4,149.67,12.7979
2617,46303.2,143.044,149.261,12.8006
2629,46515.6,142.686,148.854,12.7397
2641,46728,142.324,148.451,12.72936
2653,46940.4,141.964,148.051,12.2891
2665,47152.8,141.604,147.652,12.3424
2677,47365.2,141.245,147.258,12.3438
2689,47577.6,140.889,146.866,12.1815
2701,47790,140.534,146.477,12.0605
2713,48002.4,140.183,146.09,11.9872
2725,48214.8,139.834,145.706,11.7153
2737,48427.2,139.486,145.324,11.5987
2749,48639.6,139.137,144.944,11.3285
2761,48852,138.792,144.567,11.5002
2773,49064.4,138.448,144.192,11.3596
2785,49276.8,138.109,143.82,11.3115
2797,49489.2,137.773,143.4495,10.8703
2809,49701.6,137.44,143.082,10.6959
2821,49914,137.108,142.716,10.9826
2833,50126.4,136.778,142.354,10.7385
2845,50338.8,136.451,141.993,10.4678
2857,50551.2,136.129,141.635,10.3461
2869,50763.6,135.809,141.279,10.4732
2881,50976,135.492,140.926,10.4701
2893,51188.4,135.181,140.576,10.4651
2905,51400.8,134.871,140.229,10.3704
2917,51613.2,134.563,139.884,10.0101
2929,51825.6,134.255,139.542,9.951932
2941,52038,133.948,139.202,9.963418
2953,52250.4,133.641,138.864,9.996457
2965,52462.8,133.335,138.527,9.894221
2977,52675.2,133.03,138.194,9.678352
2989,52887.6,132.726,137.862,9.622776
3001,53100,132.424,137.533,9.646241
3013,53312.4,132.123,137.206,9.414921
3025,53524.8,131.826,136.88,9.337681
3037,53737.2,131.534,136.556,9.215633
3049,53949.6,131.242,136.235,9.209256
3061,54162,130.952,135.915,9.123117
3073,54374.4,130.664,135.596,9.066247
3085,54586.8,130.377,135.281,8.976196
3097,54799.2,130.091,134.968,8.756568
3109,55011.6,129.81,134.656,8.667948
3121,55224,129.53,134.346,8.727243
3133,55436.4,129.251,134.039,8.630647
3145,55648.8,128.973,133.734,8.474866
3157,55861.2,128.695,133.4298,8.37848
3169,56073.6,128.416,133.128,8.276592
3181,56286,128.139,132.828,8.335931
3193,56498.4,127.864,132.528,8.327153
3205,56710.8,127.591,132.231,8.248772
3217,56923.2,127.321,131.935,8.248571
3229,57135.6,127.052,131.642,8.025575
3241,57348,126.781,131.35,7.946923
3253,57560.4,126.51,131.059,7.870947
3265,57772.8,126.239,130.77,7.738743
3277,57985.2,125.968,130.482,7.617179
3289,58197.6,125.696,130.194,7.581898
3301,58410,125.425,129.909,7.551346
3313,58622.4,125.155,129.624,7.639079
3325,58834.8,124.886,129.339,7.62607
3337,59047.2,124.619,129.055,7.514192
3349,59259.6,124.353,128.774,7.451324
3361,59472,124.088,128.493,7.426231
3373,59684.4,123.824,128.213,7.291045
3385,59896.8,123.563,127.935,7.235444
3397,60109.2,123.303,127.657,7.301365
3409,60321.6,123.046,127.38,7.239457
3421,60534,122.791,127.106,7.137563
3433,60746.4,122.537,126.832,7.070651
3445,60958.8,122.282,126.56,7.047748
3457,61171.2,122.032,126.289,6.983466
3469,61383.6,121.786,126.019,6.977012
3481,61596,121.545,125.751,6.96098
3493,61808.4,121.311,125.486,6.861006
3505,62020.8,121.079,125.222,6.89428
3517,62233.2,120.851,124.96,6.784458
3529,62445.6,120.623,124.701,6.720668
3541,62658,120.394,124.443,6.616593
3553,62870.4,120.162,124.187,6.56549
3565,63082.8,119.928,123.934,6.516706
3577,63295.2,119.692,123.68,6.385003
3589,63507.6,119.45,123.428,6.413558
3601,63720,119.2,123.175,6.384771
3613,63932.4,118.945,122.923,6.372719
3625,64144.8,118.683,122.67,6.337816
3637,64357.2,118.417,122.418,6.441379
3649,64569.6,118.155,122.164,6.472114
3661,64782,117.91,121.909,6.435612
3673,64994.4,117.684,121.656,6.406094
3685,65206.8,117.47,121.405,6.220288
3697,65419.2,117.261,121.158,6.132271
3709,65631.6,117.055,120.913,6.153513
3721,65844,116.849,120.669,6.06872
3733,66056.4,116.63,120.428,5.994314
3745,66268.8,116.403,120.188,5.900788
3757,66481.2,116.17,119.948,5.848465
3769,66693.6,115.931,119.709,5.851236
3781,66906,115.688,119.47,5.847595
3793,67118.4,115.435,119.23,5.790628
3805,67330.8,115.175,118.988,5.810968
3817,67543.2,114.902,118.745,5.782278
3829,67755.6,114.626,118.5,5.793746
3841,67968,114.352,118.254,5.935059
3853,68180.4,114.074,118.005,5.936705
3865,68392.8,113.8,117.753,5.935503
3877,68605.2,113.548,117.502,6.049977
3889,68817.6,113.326,117.251,6.006136
3901,69030,113.115,117.003,6.175182
3913,69242.4,112.893,116.757,5.921291
3925,69454.8,112.669,116.512,5.837889
3937,69667.2,112.462,116.269,5.814254
3949,69879.6,112.273,116.028,5.739481
3961,70092,112.081,115.791,5.657475
3973,70304.4,111.884,115.557,5.552113
3985,70516.8,111.703,115.326,5.45285
3997,70729.2,111.542,115.098,5.392466
4009,70941.6,111.389,114.876,5.189613
4021,71154,111.235,114.657,5.079015
4033,71366.4,111.087,114.443,5.004648
4045,71578.8,110.95,114.234,4.865934
4057,71791.2,110.82,114.029,4.751456
4069,72003.6,110.681,113.829,4.586267
4081,72216,110.531,113.633,4.440788
4093,72428.4,110.367,113.439,4.389846
4105,72640.8,110.203,113.246,4.352094
4117,72853.2,110.051,113.057,4.279748
4129,73065.6,109.914,112.87,4.226333
4141,73278,109.779,112.687,4.147374
4153,73490.4,109.646,112.506,4.083394
4165,73702.8,109.512,112.329,3.993166
4177,73915.2,109.359,112.153,3.928692
4189,74127.6,109.189,111.978,3.883654
4201,74340,109.021,111.804,3.842787
4213,74552.4,108.87,111.63,3.771699
4225,74764.8,108.737,111.459,3.762226
4237,74977.2,108.603,111.29,3.713233
4249,75189.6,108.469,111.124,3.64244
4261,75402,108.335,110.959,3.577644
4273,75614.4,108.184,110.797,3.510131
4285,75826.8,108.019,110.633,3.488015
4297,76039.2,107.858,110.471,3.47668
4309,76251.6,107.716,110.308,3.475874
4321,76464,107.593,110.148,3.43304
4333,76676.4,107.477,109.99,3.4218
4345,76888.8,107.359,109.836,3.353148
4357,77101.2,107.236,109.683,3.254677
4369,77313.6,107.103,109.531,3.193419
4381,77526,106.974,109.382,3.161038
4393,77738.4,106.86,109.233,3.121987
4405,77950.8,106.764,109.088,3.060547
4417,78163.2,106.67,108.946,3.022738
4429,78375.6,106.574,108.806,2.922335
4441,78588,106.484,108.671,2.86907
4453,78800.4,106.404,108.538,2.780423
4465,79012.8,106.323,108.409,2.693748
4477,79225.2,106.23,108.282,2.625122
4489,79437.6,106.131,108.157,2.573667
4501,79650,106.039,108.034,2.50978
4513,79862.4,105.961,107.913,2.446039
4525,80074.8,105.895,107.797,2.37073
4537,80287.2,105.833,107.683,2.305369
4549,80499.6,105.769,107.573,2.219245
4561,80712,105.7,107.465,2.122472
4573,80924.4,105.623,107.36,2.066746
4585,81136.8,105.54,107.256,1.999482
4597,81349.2,105.456,107.154,1.959726
4609,81561.6,105.372,107.054,1.916716
4621,81774,105.291,106.953,1.888593
4633,81986.4,105.217,106.855,1.851163
4645,82198.8,105.146,106.759,1.818113
4657,82411.2,105.076,106.663,1.763946
4669,82623.6,105.009,106.57,1.715741
4681,82836,104.941,106.478,1.678943
4693,83048.4,104.875,106.388,1.634726
4705,83260.8,104.808,106.299,1.601298
4717,83473.2,104.743,106.212,1.552766
4729,83685.6,104.676,106.126,1.529779
4741,83898,104.609,106.042,1.491995
4753,84110.4,104.54,105.958,1.474682
4765,84322.8,104.471,105.876,1.44321
4777,84535.2,104.4,105.794,1.405921
4789,84747.6,104.325,105.713,1.40167
4801,84960,104.251,105.632,1.374899
4813,85172.4,104.173,105.552,1.364185
4825,85384.8,104.098,105.471,1.355061
4837,85597.2,104.022,105.391,1.342056
4849,85809.6,103.951,105.312,1.328391
4861,86022,103.877,105.233,1.33179
4873,86234.4,103.804,105.154,1.311639
4885,86446.8,103.734,105.076,1.296946
4897,86659.2,103.662,104.998,1.305497
4909,86871.6,103.591,104.92,1.280751
4921,87084,103.531,104.843,1.258879
4933,87296.4,103.486,104.768,1.231137
4945,87508.8,103.459,104.696,1.193942
4957,87721.2,103.443,104.627,1.140474
4969,87933.6,103.435,104.561,1.060973
4981,88146,103.429,104.5,0.983956
4993,88358.4,103.417,104.442,0.895153
5005,88570.8,103.4,104.386,0.817616
5017,88783.2,103.383,104.334,0.752989
5029,88995.6,103.36,104.282,0.685703
5041,89208,103.3393,104.233,0.650211
5053,89420.4,103.324,104.186,0.586058
5065,89632.8,103.313,104.141,0.539092
5077,89845.2,103.311,104.099,0.484923
5089,90057.6,103.33,104.06,0.422893
5101,90270,103.361,104.024,0.332811
5113,90482.4,103.393,103.993,0.252112
5125,90694.8,103.423,103.966,0.151821
5137,90907.2,103.45,103.943,0.056047
5149,91119.6,103.461,103.923,-0.010429
5161,91332,103.452,103.903,-0.054109
5173,91544.4,103.429,103.884,-0.088349
5185,91756.8,103.406,103.864,-0.098797
5197,91969.2,103.393,103.845,-0.10403
5209,92181.6,103.392,103.827,-0.111547
5221,92394,103.396,103.81,-0.129829
5233,92606.4,103.405,103.794,-0.1703
5245,92818.8,103.423,103.78,-0.195443
5257,93031.2,103.443,103.768,-0.247345
5269,93243.6,103.465,103.758,-0.289137
5281,93456,103.486,103.75,-0.335171
5293,93668.4,103.505,103.744,-0.390345
5305,93880.8,103.512,103.74,-0.419733
5317,94093.2,103.506,103.735,-0.439985
5329,94305.6,103.492,103.731,-0.461217
5341,94518,103.477,103.725,-0.442633
5353,94730.4,103.457,103.719,-0.440697
5365,94942.8,103.435,103.712,-0.416888
5377,95155.2,103.416,103.703,-0.39994
5389,95367.6,103.404,103.695,-0.390499
5401,95580,103.396,103.686,-0.37126
5413,95792.4,103.382,103.678,-0.376511
5425,96004.8,103.361,103.669,-0.365435
5437,96217.2,103.344,103.659,-0.353706
5449,96429.6,103.344,103.649,-0.334791
5461,96642,103.361,103.641,-0.36715
5473,96854.4,103.38,103.633,-0.379913
5485,97066.8,103.399,103.628,-0.416188
5497,97279.2,103.42,103.625,-0.451156
5509,97491.6,103.444,103.622,-0.479586
5521,97704,103.468,103.623,-0.525649
5533,97916.4,103.492,103.624,-0.552433
5545,98128.8,103.517,103.626,-0.600774
5557,98341.2,103.542,103.63,-0.638647
5569,98553.6,103.566,103.635,-0.655933
5581,98766,103.591,103.642,-0.705221
5593,98978.4,103.615,103.649,-0.723144
5605,99190.8,103.639,103.658,-0.75216
5617,99403.2,103.66,103.6677,-0.776269
5629,99615.6,103.681,103.678,-0.80527
5641,99828,103.699,103.689,-0.811077
5653,100040.4,103.711,103.7,-0.82602
5665,100252.8,103.719,103.711,-0.835089
5677,100465.2,103.727,103.721,-0.833716
5689,100677.6,103.73,103.732,-0.817977
5701,100890,103.726,103.742,-0.813666
5713,101102.4,103.7237,103.751,-0.806103
5725,101314.8,103.714,103.759,-0.790387
5737,101527.2,103.694,103.765,-0.749557
5749,101739.6,103.67,103.77,-0.724403
5761,101952,103.658,103.773,-0.694037
5773,102164.4,103.657,103.776,-0.651605
5785,102376.8,103.661,103.779,-0.641476
5797,102589.2,103.682,103.782,-0.648313
5809,102801.6,103.971,103.791,-0.721673
5821,103014,104.548,103.823,-1.014385
5833,103226.4,105.092,103.888,-1.529912
5845,103438.8,105.526,103.98,-2.129495
5857,103651.2,105.895,104.092,-2.676995
5869,103863.6,106.243,104.22,-3.147335
5881,104076,106.587,104.363,-3.558176
5893,104288.4,106.933,104.518,-3.900551
5905,104500.8,107.287,104.684,-4.222264
5917,104713.2,107.643,104.863,-4.52944
5929,104925.6,107.994,105.053,-4.814651
5941,105138,108.344,105.254,-5.058289
5953,105350.4,108.698,105.463,-5.299856
5965,105562.8,109.06,105.682,-5.537014
5977,105775.2,109.425,105.909,-5.764655
5989,105987.6,109.785,106.145,-5.994605
6001,106200,110.141,106.39,-6.190371
6013,106412.4,110.495,106.64,-6.398231
6025,106624.8,110.848,106.898,-6.564495
6037,106837.2,111.2,107.162,-6.728864
6049,107049.6,111.552,107.431,-6.90181
6061,107262,111.897,107.705,-7.039317
6073,107474.4,112.246,107.982,-7.159032
6085,107686.8,112.602,108.265,-7.27263
6097,107899.2,112.962,108.551,-7.405053
6109,108111.6,113.323,108.842,-7.513457
6121,108324,113.68,109.137,-7.633713
6133,108536.4,114.036,109.436,-7.757597
6145,108748.8,114.387,109.739,-7.855807
6157,108961.2,114.732,110.043,-7.946978
6169,109173.6,115.082,110.35,-8.038571
6181,109386,115.439,110.659,-8.117262
6193,109598.4,115.799,110.971,-8.191751
6205,109810.8,116.161,111.286,-8.278671
6217,110023.2,116.52,111.605,-8.365023
6229,110235.6,116.868,111.925,-8.43371
6241,110448,117.214,112.245,-8.511922
6253,110660.4,117.567,112.568,-8.578678
6265,110872.8,117.924,112.892,-8.635922
6277,111085.2,118.284,113.219,-8.69647
6289,111297.6,118.643,113.546,-8.771228
6301,111510,118.999,113.876,-8.825556
6313,111722.4,119.349,114.208,-8.899231
6325,111934.8,119.696,114.541,-8.967338
6337,112147.2,120.047,114.874,-9.008176
6349,112359.6,120.405,115.208,-9.067667
6361,112572,120.767,115.543,-9.133127
6373,112784.4,121.125,115.879,-9.190159
6385,112996.8,121.477,116.218,-9.277521
6397,113209.2,121.828,116.557,-9.341334
6409,113421.6,122.181,116.896,-9.41673
6421,113634,122.534,117.236,-9.48668
6433,113846.4,122.88,117.577,-9.555449
6445,114058.8,123.229,117.918,-9.615147
6457,114271.2,123.584,118.258,-9.701663
6469,114483.6,123.943,118.599,-9.790693
6481,114696,124.305,118.941,-9.906166
6493,114908.4,124.661,119.284,-10.0237
6505,115120.8,125.01,119.627,-10.146
6517,115333.2,125.36,119.971,-10.2933
6529,115545.6,125.716,120.315,-10.4214
6541,115758,126.079,120.66,-10.5608
6553,115970.4,126.436,121.006,-10.6932
6565,116182.8,126.786,121.352,-10.7819
6577,116395.2,127.135,121.698,-10.8403
6589,116607.6,127.489,122.045,-10.8261
6601,116820,127.844,122.391,-10.7875
6613,117032.4,128.199,122.739,-10.7255
6625,117244.8,128.553,123.086,-10.6865
6637,117457.2,128.906,123.434,-10.6563
6649,117669.6,129.259,123.783,-10.6507
6661,117882,129.613,124.131,-10.6573
6673,118094.4,129.966,124.479,-10.6656
6685,118306.8,130.32,124.828,-10.6919
6697,118519.2,130.6733,125.176,-10.6957
6709,118731.6,131.027,125.524,-10.7267
6721,118944,131.382,125.8729,-10.7352
6733,119156.4,131.736,126.222,-10.7638
6745,119368.8,132.089,126.571,-10.77223
6757,119581.2,132.443,126.92,-10.8066
6769,119793.6,132.796,127.269,-10.8283
6781,120006,133.15,127.619,-10.8502
6793,120218.4,133.505,127.968,-10.8719
6805,120430.8,133.859,128.316,-10.8797
6817,120643.2,134.214,128.666,-10.9137
6829,120855.6,134.568,129.015,-10.9228
6841,121068,134.922,129.365,-10.9514
6853,121280.4,135.275,129.715,-10.9708
6865,121492.8,135.628,130.0642,-10.984
6877,121705.2,135.981,130.413,-11.0078
6889,121917.6,136.336,130.7629,-11.01308
6901,122130,136.692,131.113,-11.0365
6913,122342.4,137.047,131.462,-11.04883
6925,122554.8,137.401,131.812,-11.07164
6937,122767.2,137.755,132.162,-11.0809
6949,122979.6,138.11,132.511,-11.112
6961,123192,138.464,132.862,-11.1258
6973,123404.4,138.815,133.2125,-11.13471
6985,123616.8,139.16,133.562,-11.1539
6997,123829.2,139.511,133.911,-11.1664
7009,124041.6,139.868,134.259,-11.1597
7021,124254,140.227,134.607,-11.1612
7033,124466.4,140.581,134.956,-11.1788
7045,124678.8,140.929,135.304,-11.1895
7057,124891.2,141.282,135.653,-11.188
7069,125103.6,141.64,136.001,-11.2056
7081,125316,142.002,136.349,-11.2148
7093,125528.4,142.365,136.698,-11.24282
7105,125740.8,142.723,137.047,-11.27261
7117,125953.2,143.073,137.398,-11.3083
7129,126165.6,143.423,137.749,-11.33313
7141,126378,143.773,138.098,-11.3575
7153,126590.4,144.124,138.449,-11.3684
7165,126802.8,144.476,138.799,-11.3849
7177,127015.2,144.83,139.149,-11.3945
7189,127227.6,145.19,139.499,-11.413
7201,127440,145.549,139.85,-11.4374
7213,127652.4,145.907,140.201,-11.4651
7225,127864.8,146.26,140.553,-11.4931
7237,128077.2,146.607,140.905,-11.5235
7249,128289.6,146.953,141.256,-11.5348
7261,128502,147.306,141.607,-11.5371
7273,128714.4,147.666,141.959,-11.5441
7285,128926.8,148.026,142.311,-11.5492
7297,129139.2,148.383,142.664,-11.5651
7309,129351.6,148.732,143.017,-11.573
7321,129564,149.083,143.369,-11.5703
7333,129776.4,149.434,143.721,-11.5598
7345,129988.8,149.786,144.073,-11.53373
7357,130201.2,150.142,144.426,-11.4944
7369,130413.6,150.494,144.778,-11.4484
7381,130626,150.843,145.13,-11.3682
7393,130838.4,151.2,145.482,-11.279
7405,131050.8,151.56,145.833,-11.1548
7417,131263.2,151.922,146.185,-11.0005
7429,131475.6,152.279,146.538,-10.8282
7441,131688,152.627,146.893,-10.5831
7453,131900.4,152.975,147.245,-10.28641
7465,132112.8,153.33,147.598,-9.918381
7477,132325.2,153.69,147.952,-9.476125
7489,132537.6,154.048,148.306,-8.957605
7501,132750,154.403,148.661,-8.348999
7513,132962.4,154.751,149.015,-7.603677
7525,133174.8,155.103,149.37,-6.720558
7537,133387.2,155.459,149.724,-5.664393
7549,133599.6,155.816,150.079,-4.412673
7561,133812,156.167,150.433,-2.941347
7573,134024.4,156.515,150.788,-1.234568
7585,134236.8,156.869,151.143,0.696485
7597,134449.2,157.226,151.498,2.811665
7609,134661.6,157.586,151.853,5.003811
7621,134874,157.938,152.209,7.18396
7633,135086.4,158.285,152.565,9.138899
7645,135298.8,158.637,152.92,10.665
7657,135511.2,158.994,153.274,11.4108
7669,135723.6,159.354,153.629,11.0659
7681,135936,159.71,153.985,9.404706
7693,136148.4,160.06,154.341,6.518384
7705,136360.8,160.407,154.696,2.779243
7717,136573.2,160.758,155.051,-1.176601
7729,136785.6,161.116,155.404,-4.671707
7741,136998,161.474,155.758,-7.245971
7753,137210.4,161.83,156.113,-8.87694
7765,137422.8,162.179,156.467,-9.769134
7777,137635.2,162.529,156.82,-10.2707
7789,137847.6,162.885,157.174,-10.54539
7801,138060,163.245,157.5278,-10.7127
7813,138272.4,163.604,157.883,-10.8506
7825,138484.8,163.96,158.238,-10.9592
7837,138697.2,164.308,158.592,-11.0789
7849,138909.6,164.659,158.946,-11.1621
7861,139122,165.014,159.301,-11.2425
7873,139334.4,165.372,159.656,-11.3203
7885,139546.8,165.727,160.012,-11.3781
7897,139759.2,166.076,160.367,-11.4144
7909,139971.6,166.422,160.721,-11.446
7921,140184,166.774,161.074,-11.4463
7933,140396.4,167.131,161.429,-11.4659
7945,140608.8,167.4924,161.782,-11.4634
7957,140821.2,167.853,162.136,-11.5049
7969,141033.6,168.208,162.492,-11.54862
7981,141246,168.555,162.847,-11.5579
7993,141458.4,168.903,163.202,-11.549
8005,141670.8,169.257,163.556,-11.5722
8017,141883.2,169.615,163.911,-11.59683
8029,142095.6,169.974,164.265,-11.5818
8041,142308,170.33,164.621,-11.6248
8053,142520.4,170.675,164.976,-11.6267
8065,142732.8,171.024,165.33,-11.6519
8077,142945.2,171.38,165.683,-11.6873
8089,143157.6,171.739,166.037,-11.70712
8101,143370,172.097,166.392,-11.7214
8113,143582.4,172.445,166.747,-11.7121
8125,143794.8,172.791,167.101,-11.76054
8137,144007.2,173.143,167.454,-11.8258
8149,144219.6,173.504,167.807,-11.8376
8161,144432,173.866,168.16,-11.8516
8173,144644.4,174.221,168.514,-11.9752
8185,144856.8,174.572,168.868,-12.102
8197,145069.2,174.925,169.221,-12.3668
8209,145281.6,175.283,169.576,-12.7975
8221,145494,175.639,169.931,-13.7823
8233,145706.4,175.99,170.286,-15.7744
8245,145918.8,176.335,170.64,-20.2991
8257,146131.2,176.686,170.993,-25.60275
8269,146343.6,177.043,171.346,-24.2653
8281,146556,177.405,171.6994,-1.668142
8293,146768.4,177.762,172.055,3.501362
8305,146980.8,178.1127,172.41,-3.567047
8317,147193.2,178.465,172.766,-8.34279
8329,147405.6,178.822,173.12,-10.5639
8341,147618,179.179,173.475,-11.4822
8353,147830.4,179.533,173.83,-11.892
8365,148042.8,179.876,174.185,-12.138
8377,148255.2,180.223,174.539,-12.251
8389,148467.6,180.579,174.892,-12.3444
8401,148680,180.941,175.245,-12.6398
8413,148892.4,181.303,175.599,-13.9237
8425,149104.8,181.652,175.954,-21.0174
8437,149317.2,181.994,176.306,-47.3249
8449,149529.6,182.345,176.656,-85.1285
8461,149742,182.705,177.005,-83.6785
8473,149954.4,183.068,177.355,-94.1132
8485,150166.8,183.428,177.705,-79.2618
8497,150379.2,183.78,178.06,-40.4977
8509,150591.6,184.128,178.414,-24.9624
8521,150804,184.484,178.769,-18.5388
8533,151016.4,184.842,179.124,-15.8872
8545,151228.8,185.198,179.48,-14.7435
8557,151441.2,185.553,179.836,-14.2773
8569,151653.6,185.9,180.192,-14.14241
8581,151866,186.239,180.547,-14.0738
8593,152078.4,186.588,180.9,-14.0547
8605,152290.8,186.948,181.252,-13.9703
8617,152503.2,187.313,181.604,-13.878
8629,152715.6,187.672,181.958,-13.9211
8641,152928,188.011,182.312,-14.0172
8653,153140.4,188.347,182.662,-14.0238
8665,153352.8,188.706,183.011,-13.9757
8677,153565.2,189.073,183.359,-13.9706
8689,153777.6,189.442,183.709,-13.9154
8701,153990,189.79,184.06,-13.9777
8713,154202.4,190.137,184.41,-14.0644
8725,154414.8,190.495,184.76,-14.2049
8737,154627.2,190.86,185.113,-14.1317
8749,154839.6,191.218,185.465,-14.09
8761,155052,191.552,185.817,-14.191
8773,155264.4,191.893,186.166,-14.2447
8785,155476.8,192.253,186.514,-14.2331
8797,155689.2,192.621,186.864,-14.2347
8809,155901.6,192.988,187.215,-14.2831
8821,156114,193.334,187.566,-14.192
8833,156326.4,193.678,187.917,-14.3128
8845,156538.8,194.036,188.268,-14.416
8857,156751.2,194.4,188.619,-14.4074
8869,156963.6,194.758,188.973,-14.3896
8881,157176,195.086,189.325,-14.45479
8893,157388.4,195.429,189.675,-14.5352
8905,157600.8,195.795,190.022,-14.406
8917,157813.2,196.1612,190.371,-14.4097
8929,158025.6,196.527,190.722,-14.3637
8941,158238,196.867,191.073,-14.4162
8953,158450.4,197.214,191.423,-14.54755
8965,158662.8,197.578,191.773,-14.60068
8977,158875.2,197.943,192.125,-14.6681
8989,159087.6,198.3,192.478,-14.6655
9001,159300,198.63,192.83,-14.6653
9013,159512.4,198.974,193.179,-14.7201
9025,159724.8,199.341,193.528,-14.661
9037,159937.2,199.708,193.878,-14.5801
9049,160149.6,200.074,194.231,-14.7031
9061,160362,200.423,194.585,-14.894
9073,160574.4,200.775,194.939,-14.9412
9085,160786.8,201.133,195.294,-15.0124
9097,160999.2,201.488,195.651,-14.9681
9109,161211.6,201.829,196.006,-15.0583
9121,161424,202.18,196.361,-15.0773
9133,161636.4,202.527,196.714,-15.1968
9145,161848.8,202.867,197.066,-15.1263
9157,162061.2,203.227,197.416,-15.0565
9169,162273.6,203.596,197.767,-15.0331
9181,162486,203.963,198.12,-15.1612
9193,162698.4,204.315,198.474,-15.2609
9205,162910.8,204.654,198.827,-15.3756
9217,163123.2,205.012,199.179,-15.3903
9229,163335.6,205.376,199.532,-15.42361
9241,163548,205.737,199.886,-15.43263
9253,163760.4,206.088,200.242,-15.41484
9265,163972.8,206.434,200.597,-15.3771
9277,164185.2,206.791,200.953,-15.5134
9289,164397.6,207.154,201.309,-15.4671
9301,164610,207.513,201.668,-15.72058
9313,164822.4,207.851,202.026,-15.7947
9325,165034.8,208.191,202.383,-15.739
9337,165247.2,208.55,202.737,-15.7961
9349,165459.6,208.915,203.093,-15.8593
9361,165672,209.278,203.45,-15.7903
9373,165884.4,209.632,203.809,-15.7545
9385,166096.8,209.985,204.169,-15.8544
9397,166309.2,210.341,204.528,-16.021
9409,166521.6,210.7,204.889,-16.0397
9421,166734,211.055,205.25,-16.2041
9433,166946.4,211.402,205.613,-16.3039
9445,167158.8,211.755,205.975,-16.2833
9457,167371.2,212.101,206.337,-16.1469
9469,167583.6,212.429,206.697,-16.1931
9481,167796,212.776,207.053,-16.2912
9493,168008.4,213.141,207.407,-16.2818
9505,168220.8,213.507,207.763,-16.1636
9517,168433.2,213.879,208.12,-16.277
9529,168645.6,214.238,208.479,-16.50414
9541,168858,214.593,208.838,-16.539
9553,169070.4,214.936,209.199,-16.6615
9565,169282.8,215.271,209.558,-16.6506
9577,169495.2,215.625,209.913,-16.6001
9589,169707.6,215.99,210.2708,-16.731
9601,169920,216.353,210.628,-16.8195
9613,170132.4,216.718,210.988,-16.76969
9625,170344.8,217.071,211.348,-16.8534
9637,170557.2,217.422,211.71,-16.739
9649,170769.6,217.766,212.07,-16.7309
9661,170982,218.1145,212.43,-16.9878
9673,171194.4,218.471,212.79,-17.1832
9685,171406.8,218.831,213.15,-17.0163
9697,171619.2,219.191,213.51,-17.1464
9709,171831.6,219.546,213.873,-17.1829
9721,172044,219.9,214.235,-17.32856
9733,172256.4,220.248,214.598,-17.4917
9745,172468.8,220.588,214.958,-17.4439
9757,172681.2,220.94,215.318,-17.2635
9769,172893.6,221.3,215.677,-17.356
9781,173106,221.658,216.036,-17.2918
9793,173318.4,222.02,216.397,-17.5781
9805,173530.8,222.376,216.758,-17.6784
9817,173743.2,222.727,217.12,-17.5847
9829,173955.6,223.0773,217.481,-17.7823
9841,174168,223.432,217.841,-17.83342
9853,174380.4,223.784,218.202,-17.7939
9865,174592.8,224.138,218.563,-17.9254
9877,174805.2,224.488,218.923,-18.0189
9889,175017.6,224.843,219.283,-18.2172
9901,175230,225.198,219.643,-18.2204
9913,175442.4,225.555,220.003,-18.2863
9925,175654.8,225.912,220.364,-18.34456
9937,175867.2,226.265,220.724,-18.27761
9949,176079.6,226.618,221.085,-18.3801
9961,176292,226.968,221.446,-18.6027
9973,176504.4,227.322,221.805,-18.5461
9985,176716.8,227.676,222.164,-18.5837
9997,176929.2,228.032,222.525,-18.81082
10009,177141.6,228.382,222.885,-18.892
10021,177354,228.737,223.245,-18.9899
10033,177566.4,229.089,223.604,-19.021
10045,177778.8,229.441,223.964,-18.9619
10057,177991.2,229.797,224.323,-19.0265
10069,178203.6,230.153,224.681,-19.1925
10081,178416,230.512,225.039,-19.3658
10093,178628.4,230.868,225.399,-19.4827
10105,178840.8,231.22,225.759,-19.6763
10117,179053.2,231.571,226.119,-19.6258
10129,179265.6,231.923,226.478,-19.564
10141,179478,232.274,226.836,-19.53417
10153,179690.4,232.628,227.195,-19.7886
10165,179902.8,232.985,227.553,-19.91737
10177,180115.2,233.34,227.912,-19.9174
10189,180327.6,233.695,228.27,-19.9816
10201,180540,234.046,228.628,-20.0786
10213,180752.4,234.399,228.986,-20.3009
10225,180964.8,234.755,229.345,-20.4418
10237,181177.2,235.113,229.703,-20.4424
10249,181389.6,235.468,230.061,-20.4629
10261,181602,235.823,230.42,-20.71033
10273,181814.4,236.175,230.779,-20.8227
10285,182026.8,236.527,231.138,-20.9423
10297,182239.2,236.88,231.496,-21.032
10309,182451.6,237.234,231.855,-21.0891
10321,182664,237.588,232.214,-21.2377
10333,182876.4,237.941,232.572,-21.2231
10345,183088.8,238.293,232.93,-21.3173
10357,183301.2,238.644,233.287,-21.5389
10369,183513.6,238.999,233.644,-21.6513
10381,183726,239.353,234.002,-21.9328
10393,183938.4,239.707,234.359,-22.10004
10405,184150.8,240.0614,234.716,-22.2059
10417,184363.2,240.415,235.072,-22.203
10429,184575.6,240.77,235.43,-22.3734
10441,184788,241.124,235.787,-22.6799
10453,185000.4,241.478,236.143,-22.7291
10465,185212.8,241.833,236.5,-22.8279
10477,185425.2,242.19,236.857,-22.9764
10489,185637.6,242.545,237.214,-23.2274
10501,185850,242.897,237.571,-23.532
10513,186062.4,243.249,237.928,-23.7366
10525,186274.8,243.602,238.284,-23.8929
10537,186487.2,243.957,238.641,-24.0576
10549,186699.6,244.309,238.997,-23.9575
10561,186912,244.663,239.354,-24.2784
10573,187124.4,245.017,239.71,-24.5469
10585,187336.8,245.371,240.066,-24.6807
10597,187549.2,245.727,240.422,-24.8805
10609,187761.6,246.082,240.779,-25.2805
10621,187974,246.437,241.135,-25.6409
10633,188186.4,246.792,241.491,-25.7047
10645,188398.8,247.148,241.849,-26.0089
10657,188611.2,247.504,242.206,-26.1617
10669,188823.6,247.856,242.563,-26.4545
10681,189036,248.206,242.92,-26.8011
10693,189248.4,248.557,243.277,-26.9657
10705,189460.8,248.913,243.633,-27.2288
10717,189673.2,249.269,243.99,-27.569
10729,189885.6,249.627,244.347,-27.98
10741,190098,249.981,244.704,-28.1975
10753,190310.4,250.332,245.062,-28.61571
10765,190522.8,250.683,245.419,-29.0032
10777,190735.2,251.034,245.776,-29.3922
10789,190947.6,251.386,246.132,-29.7844
10801,191160,251.742,246.489,-30.1239
10813,191372.4,252.1,246.844,-30.3674
10825,191584.8,252.456,247.201,-30.9086
10837,191797.2,252.805,247.557,-31.2541
10849,192009.6,253.157,247.912,-31.594
10861,192222,253.513,248.269,-32.1628
10873,192434.4,253.871,248.625,-32.651
10885,192646.8,254.227,248.981,-33.1574
10897,192859.2,254.581,249.338,-33.7508
10909,193071.6,254.934,249.694,-34.3382
10921,193284,255.284,250.051,-34.8557
10933,193496.4,255.635,250.406,-35.4171
10945,193708.8,255.987,250.762,-36.0225
10957,193921.2,256.341,251.117,-36.7391
10969,194133.6,256.696,251.472,-37.3962
10981,194346,257.05,251.827,-38.0643
10993,194558.4,257.406,252.182,-38.72561
11005,194770.8,257.762,252.537,-39.4306
11017,194983.2,258.117,252.891,-40.1913
11029,195195.6,258.47,253.247,-40.9287
11041,195408,258.824,253.601,-41.826
11053,195620.4,259.179,253.956,-42.6853
11065,195832.8,259.532,254.311,-43.786
11077,196045.2,259.887,254.666,-44.8078
11089,196257.6,260.24,255.021,-45.89482
11101,196470,260.596,255.376,-47.0351
11113,196682.4,260.951,255.731,-48.2714
11125,196894.8,261.305,256.086,-49.52199
11137,197107.2,261.658,256.442,-50.91028
11149,197319.6,262.011,256.798,-52.2776
11161,197532,262.365,257.152,-53.7109
11173,197744.4,262.718,257.508,-55.3436
11185,197956.8,263.071,257.863,-56.971
11197,198169.2,263.427,258.218,-58.5986
11209,198381.6,263.78,258.573,-60.5104
11221,198594,264.133,258.928,-62.4406
11233,198806.4,264.488,259.283,-64.5689
11245,199018.8,264.843,259.638,-66.7869
11257,199231.2,265.198,259.993,-69.0957
11269,199443.6,265.55,260.347,-71.5973
11281,199656,265.904,260.702,-74.1945
11293,199868.4,266.258,261.057,-76.9983
11305,200080.8,266.611,261.412,-79.9283
11317,200293.2,266.963,261.766,-83.1412
11329,200505.6,267.319,262.12,-86.4997
11341,200718,267.678,262.475,-90.0523
11353,200930.4,268.034,262.829,-93.88405
11365,201142.8,268.384,263.183,-98.0482
11377,201355.2,268.736,263.537,-102.463
11389,201567.6,269.091,263.891,-107.082
11401,201780,269.447,264.245,-112.096
11413,201992.4,269.803,264.599,-117.36
11425,202204.8,270.157,264.954,-123.005
11437,202417.2,270.509,265.309,-128.897
11449,202629.6,270.862,265.664,-135.139
11461,202842,271.216,266.018,-141.887
11473,203054.4,271.569,266.373,-149.084
11485,203266.8,271.92,266.726,-156.643
11497,203479.2,272.274,267.079,-164.438
11509,203691.6,272.6251,267.432,-172.413
11521,203904,272.979,267.785,-180.767
11533,204116.4,273.336,268.137,-189.446
11545,204328.8,273.693,268.49,-198.235
11557,204541.2,274.046,268.841,-207.081
11569,204753.6,274.398,269.193,-215.046
11581,204966,274.753,269.546,-221.915
11593,205178.4,275.109,269.898,-227.359
11605,205390.8,275.463,270.249,-230.433
11617,205603.2,275.815,270.603,-230.431
11629,205815.6,276.171,270.956,-227.403
11641,206028,276.524,271.309,-221.449
11653,206240.4,276.873,271.662,-203.748
11665,206452.8,277.225,272.016,-179.816
11677,206665.2,277.582,272.37,-136.097
11689,206877.6,277.939,272.726,-86.3692
11701,207090,278.297,273.084,-60.8631
11713,207302.4,278.646,273.443,-47.81501
11725,207514.8,278.998,273.801,-41.2208
11737,207727.2,279.356,274.158,-37.7585
11749,207939.6,279.713,274.517,-35.9749
11761,208152,280.067,274.875,-35.0473
11773,208364.4,280.42,275.233,-34.5829
11785,208576.8,280.771,275.591,-34.3312
11797,208789.2,281.121,275.948,-34.2134
11809,209001.6,281.475,276.304,-34.052
11821,209214,281.83,276.659,-33.9715
11833,209426.4,282.19,277.015,-33.9149
11845,209638.8,282.546,277.372,-33.8738
11857,209851.2,282.901,277.729,-33.8991
11869,210063.6,283.256,278.086,-33.8847
11881,210276,283.608,278.443,-33.8554
11893,210488.4,283.961,278.8,-33.8578
11905,210700.8,284.316,279.157,-33.8707
11917,210913.2,284.67,279.513,-33.8779
11929,211125.6,285.023,279.871,-33.8751
11941,211338,285.377,280.227,-33.8611
11953,211550.4,285.73,280.585,-33.8485
11965,211762.8,286.084,280.942,-33.8215
11977,211975.2,286.44,281.298,-33.8093
11989,212187.6,286.793,281.655,-33.7667
12001,212400,287.149,282.011,-33.74478
12013,212612.4,287.503,282.369,-33.6931
12025,212824.8,287.858,282.726,-33.6565
12037,213037.2,288.212,283.084,-33.6388
12049,213249.6,288.567,283.442,-33.6385
12061,213462,288.921,283.8,-33.6321
12073,213674.4,289.275,284.158,-33.6432
12085,213886.8,289.628,284.515,-33.6441
12097,214099.2,289.982,284.874,-33.6372
12109,214311.6,290.335,285.231,-33.6364
12121,214524,290.688,285.589,-33.6256
12133,214736.4,291.042,285.946,-33.6186
12145,214948.8,291.393,286.304,-33.5918
12157,215161.2,291.747,286.662,-33.5666
12169,215373.6,292.101,287.019,-33.5598
12181,215586,292.454,287.376,-33.5483
12193,215798.4,292.809,287.732,-33.5267
12205,216010.8,293.163,288.088,-33.5069
12217,216223.2,293.518,288.445,-33.4915
12229,216435.6,293.872,288.801,-33.4673
12241,216648,294.227,289.158,-33.4389
12253,216860.4,294.581,289.514,-33.42942
12265,217072.8,294.934,289.87,-33.4162
12277,217285.2,295.288,290.226,-33.3991
12289,217497.6,295.642,290.582,-33.3798
12301,217710,295.9961,290.937,-33.3621
12313,217922.4,296.35,291.292,-33.3356
12325,218134.8,296.703,291.647,-33.2997
12337,218347.2,297.057,292.002,-33.2611
12349,218559.6,297.411,292.357,-33.2279
12361,218772,297.766,292.71,-33.2061
12373,218984.4,298.12,293.063,-33.1631
12385,219196.8,298.474,293.416,-33.1107
12397,219409.2,298.828,293.769,-33.0522
12409,219621.6,299.182,294.119,-32.9883
12421,219834,299.535,294.47,-32.9094
12433,220046.4,299.889,294.822,-32.8362
12445,220258.8,300.243,295.174,-32.8133
12457,220471.2,300.598,295.531,-32.8644
12469,220683.6,300.952,295.888,-32.9676
12481,220896,301.306,296.247,-33.0814
12493,221108.4,301.659,296.605,-33.1738
12505,221320.8,302.014,296.963,-33.2269
12517,221533.2,302.368,297.321,-33.2515
12529,221745.6,302.722,297.679,-33.2449
12541,221958,303.075,298.036,-33.2214
12553,222170.4,303.43,298.394,-33.1895
12565,222382.8,303.783,298.75,-33.1581
12577,222595.2,304.138,299.108,-33.1345
12589,222807.6,304.492,299.464,-33.1058
12601,223020,304.846,299.822,-33.0903
12613,223232.4,305.199,300.178,-33.1104
12625,223444.8,305.553,300.534,-33.08842
12637,223657.2,305.907,300.891,-33.0821
12649,223869.6,306.262,301.247,-33.0707
12661,224082,306.616,301.602,-33.0497
12673,224294.4,306.969,301.958,-33.0186
12685,224506.8,307.323,302.314,-32.9893
12697,224719.2,307.677,302.669,-32.97181
12709,224931.6,308.03,303.025,-32.9604
12721,225144,308.384,303.38,-32.9162
12733,225356.4,308.738,303.735,-32.8732
12745,225568.8,309.09,304.09,-32.8789
12757,225781.2,309.441,304.444,-32.8484
12769,225993.6,309.795,304.798,-32.828
12781,226206,310.143,305.152,-32.8081
12793,226418.4,310.495,305.503,-32.7529
12805,226630.8,310.851,305.856,-32.68825
12817,226843.2,311.207,306.208,-32.625
12829,227055.6,311.563,306.56,-32.5697
12841,227268,311.919,306.912,-32.5336
12853,227480.4,312.273,307.265,-32.5201
12865,227692.8,312.625,307.616,-32.5095
12877,227905.2,312.978,307.968,-32.488
12889,228117.6,313.334,308.319,-32.4683
12901,228330,313.694,308.67,-32.4563
12913,228542.4,314.05,309.024,-32.4737
12925,228754.8,314.403,309.377,-32.5047
12937,228967.2,314.749,309.729,-32.554
12949,229179.6,315.1,310.08,-32.535
12961,229392,315.458,310.432,-32.4992
12973,229604.4,315.818,310.783,-32.4335
12985,229816.8,316.175,311.136,-32.4074
12997,230029.2,316.53,311.489,-32.4294
13009,230241.6,316.883,311.844,-32.4618
13021,230454,317.237,312.197,-32.493
13033,230666.4,317.591,312.552,-32.5208
13045,230878.8,317.945,312.907,-32.53928
13057,231091.2,318.298,313.261,-32.5633
13069,231303.6,318.651,313.616,-32.5698
13081,231516,319.002,313.971,-32.582
13093,231728.4,319.22,314.322,-32.5652
13105,231940.8,319.197,314.653,-32.2971
13117,232153.2,319.166,314.952,-31.3477
13129,232365.6,319.153,315.221,-29.6934
13141,232578,319.157,315.466,-27.6303
13153,232790.4,319.16,315.691,-25.4422
13165,233002.8,319.161,315.897,-23.30623
13177,233215.2,319.164,316.086,-21.2976
13189,233427.6,319.159,316.258,-19.4452
13201,233640,319.153,316.415,-17.7159
13213,233852.4,319.152,316.557,-16.1033
13225,234064.8,319.157,316.687,-14.59884
13237,234277.2,319.156,316.807,-13.229
13249,234489.6,319.157,316.915,-11.99632
13261,234702,319.159,317.015,-10.8747
13273,234914.4,319.155,317.107,-9.866544
13285,235126.8,319.149,317.189,-8.924133
13297,235339.2,319.148,317.263,-8.05684
13309,235551.6,319.154,317.331,-7.232733
13321,235764,319.153,317.394,-6.504786
13333,235976.4,319.153,317.451,-5.84564
13345,236188.8,319.157,317.504,-5.263878
13357,236401.2,319.16,317.553,-4.735174
13369,236613.6,319.159,317.598,-4.271172
13381,236826,319.154,317.64,-3.86308
13393,237038.4,319.143,317.677,-3.459581
13405,237250.8,319.143,317.708,-3.031979
13417,237463.2,319.147,317.736,-2.632252
13429,237675.6,319.154,317.763,-2.265793
13441,237888,319.157,317.789,-1.965843
13453,238100.4,319.158,317.813,-1.725146
13465,238312.8,319.159,317.836,-1.519055
13477,238525.2,319.156,317.857,-1.349594
13489,238737.6,319.151,317.876,-1.17339
13501,238950,319.148,317.892,-0.98538
13513,239162.4,319.139,317.906,-0.8048
13525,239374.8,319.137,317.918,-0.589799
13537,239587.2,319.142,317.926,-0.37784
13549,239799.6,319.15,317.935,-0.198116
13561,240012,319.156,317.945,-0.063619
13573,240224.4,319.157,317.955,0.007763
13585,240436.8,319.151,317.963,0.053325
13597,240649.2,319.145,317.971,0.116605
13609,240861.6,319.145,317.977,0.208066
13621,241074,319.148,317.982,0.295983
13633,241286.4,319.157,317.987,0.377149
13645,241498.8,319.16,317.993,0.414271
13657,241711.2,319.159,318,0.410557
13669,241923.6,319.156,318.006,0.402793
13681,242136,319.152,318.011,0.411735
13693,242348.4,319.142,318.016,0.441601
13705,242560.8,319.141,318.018,0.517028
13717,242773.2,319.146,318.02,0.610511
13729,242985.6,319.154,318.022,0.68425
13741,243198,319.155,318.026,0.721034
13753,243410.4,319.155,318.029,0.716645
13765,243622.8,319.153,318.032,0.709557
13777,243835.2,319.148,318.034,0.712761
13789,244047.6,319.145,318.036,0.726766
13801,244260,319.15,318.037,0.764057
13813,244472.4,319.156,318.039,0.80236
13825,244684.8,319.16,318.042,0.801683
13837,244897.2,319.161,318.047,0.767258
13849,245109.6,319.157,318.05,0.72119
13861,245322,319.154,318.054,0.694527
13873,245534.4,319.151,318.057,0.683389
13885,245746.8,319.154,318.06,0.694018
13897,245959.2,319.161,318.063,0.712915
13909,246171.6,319.162,318.068,0.704307
13921,246384,319.161,318.073,0.679838
13933,246596.4,319.153,318.077,0.645751
13945,246808.8,319.149,318.081,0.654693
13957,247021.2,319.15,318.082,0.686583
13969,247233.6,319.154,318.085,0.72404
13981,247446,319.157,318.088,0.749011
13993,247658.4,319.159,318.0917,0.752553
14005,247870.8,319.158,318.097,0.738883
14017,248083.2,319.154,318.1,0.718296
14029,248295.6,319.152,318.102,0.718632
14041,248508,319.15,318.105,0.736347
14053,248720.4,319.147,318.108,0.761487
14065,248932.8,319.149,318.11,0.80215
14077,249145.2,319.154,318.111,0.840283
14089,249357.6,319.155,318.113,0.85513
14101,249570,319.154,318.116,0.854285
14113,249782.4,319.153,318.117,0.858671
14125,249994.8,319.149,318.119,0.859344
14137,250207.2,319.146,318.12,0.876723
14149,250419.6,319.143,318.12,0.905576
14161,250632,319.149,318.12,0.956195
14173,250844.4,319.155,318.122,0.997533
14185,251056.8,319.158,318.123,0.996688
14197,251269.2,319.155,318.126,0.969521
14209,251481.6,319.152,318.128,0.936111
14221,251694,319.149,318.13,0.930879
14233,251906.4,319.15,318.13,0.926155
14245,252118.8,319.152,318.131,0.96243
14257,252331.2,319.155,318.133,0.975759
14269,252543.6,319.157,318.136,0.967658
14281,252756,319.157,318.138,0.938635
14293,252968.4,319.154,318.141,0.910962
14305,253180.8,319.152,318.142,0.903875
14317,253393.2,319.15,318.144,0.901511
14329,253605.6,319.15,318.146,0.91737
14341,253818,319.151,318.146,0.935423
14353,254030.4,319.15,318.148,0.955332
14365,254242.8,319.15,318.148,0.963262
14377,254455.2,319.151,318.15,0.982834
14389,254667.6,319.149,318.151,0.992956
14401,254880,319.148,318.151,1.009323
14413,255092.4,319.148,318.151,1.012191
14425,255304.8,319.151,318.15,1.034633
14437,255517.2,319.1556,318.152,1.057915
14449,255729.6,319.158,318.153,1.048465
14461,255942,319.158,318.157,1.013368
14473,256154.4,319.156,318.158,0.970342
14485,256366.8,319.152,318.16,0.944357
14497,256579.2,319.151,318.162,0.932207
14509,256791.6,319.153,318.163,0.935075
14521,257004,319.154,318.165,0.950596
14533,257216.4,319.154,318.167,0.953632
14545,257428.8,319.153,318.168,0.939965
14557,257641.2,319.151,318.17,0.927984
14569,257853.6,319.15,318.171,0.936757
14581,258066,319.147,318.172,0.954978
14593,258278.4,319.146,318.172,0.980118
14605,258490.8,319.147,318.173,0.999183
14617,258703.2,319.151,318.172,1.036303
14629,258915.6,319.155,318.174,1.066841
14641,259128,319.156,318.175,1.059416
14653,259340.4,319.156,318.176,1.034444
14665,259552.8,319.154,318.178,1.010147
14677,259765.2,319.151,318.179,0.97927
14689,259977.6,319.149,318.18,0.968133
14701,260190,319.152,318.182,0.980955
14713,260402.4,319.152,318.182,0.98686
14725,260614.8,319.153,318.184,0.998838
14737,260827.2,319.151,318.185,0.987364
14749,261039.6,319.152,318.186,0.993774
14761,261252,319.153,318.188,0.990736
14773,261464.4,319.152,318.189,0.988373
14785,261676.8,319.153,318.191,0.979092
14797,261889.2,319.153,318.192,0.984153
14809,262101.6,319.153,318.194,0.984152
14821,262314,319.153,318.194,0.972341
14833,262526.4,319.152,318.197,0.982294
14845,262738.8,319.151,318.197,0.98938
14857,262951.2,319.151,318.198,0.982799
14869,263163.6,319.152,318.199,0.994778
14881,263376,319.151,318.2,0.995621
14893,263588.4,319.151,318.202,0.998825
14905,263800.8,319.151,318.202,1.008442
14917,264013.2,319.15,318.203,1.000174
14929,264225.6,319.145,318.203,0.993256
14941,264438,319.144,318.203,1.021601
14953,264650.4,319.145,318.202,1.050453
14956,264703.5,319.145,318.202,1.063951