File: i_data_processed/0.25Kmin/8wt%_climb_proc.txt
 Index  Time(s)  Furnace Temperature(K)  Sample Temperature(K)  HeatFlow(mW)  Q_Corrected       Fc
  8501  98600.0              127.955             118.418    -17.3872   -14.9091      NaN
  8508  98681.2              128.292             118.656    -17.7374   -15.2288      NaN
  8515  98762.4              128.631             118.896    -18.0831   -15.5641      NaN
  8522  98843.6              128.969             119.138    -18.4648   -15.9302      NaN
  8529  98924.8              129.306             119.383    -18.8415   -16.293      NaN
  8536  99006.0              129.644             119.631    -19.2542   -16.6981      NaN
  8543  99087.2              129.982             119.88    -19.6692   -17.0898      NaN
  8550  99168.4              130.321             120.133    -20.1132   -17.5217      NaN
  8557  99249.6              130.659             120.386    -20.5849   -17.9786      NaN
  8564  99330.8              130.998             120.642    -21.0726   -18.4599      NaN
  8571  99412.0              131.336             120.9    -21.5895   -18.9685      NaN
  8578  99493.2              131.676             121.16    -22.1325   -19.4974      NaN
  8585  99574.4              132.015             121.421    -22.7083   -20.0547      NaN
  8592  99655.6              132.355             121.685    -23.2848   -20.6204      NaN
  8599  99736.8              132.694             121.951    -23.8552   -21.1747      NaN
  8606  99818.0              133.033             122.218    -24.4207   -21.7479      NaN
  8613  99899.2              133.371             122.487    -24.9354   -22.2455      NaN
  8620  99980.4              133.71             122.758    -25.3794   -22.6808      NaN
  8627 100061.6              134.047             123.029    -25.6906   -22.9829      NaN
  8634 100142.8              134.386             123.304    -25.8953   -23.163      NaN
  8641 100224.0              134.724             123.58    -25.9375   -23.2135      NaN
  8648 100305.2              135.062             123.858    -25.8798   -23.1504      NaN
  8655 100386.4              135.401             124.136    -25.7347   -22.9901      NaN
  8662 100467.6              135.74             124.416    -25.5718   -22.8134      NaN
  8669 100548.8              136.078             124.698    -25.4298   -22.6772      NaN
  8676 100630.0              136.417             124.981    -25.3349   -22.5675      NaN
  8683 100711.2              136.757             125.265    -25.2901   -22.5108      NaN
  8690 100792.4              137.096             125.551    -25.2958   -22.5136      NaN
  8697 100873.6              137.435             125.838    -25.3242   -22.5285      NaN
  8704 100954.8              137.774             126.126    -25.3871   -22.5959      NaN
  8711 101036.0              138.112             126.416    -25.4557   -22.6583      NaN
  8718 101117.2              138.45             126.707    -25.5537   -22.7416      NaN
  8725 101198.4              138.788             126.999    -25.6718   -22.8605      NaN
  8732 101279.6              139.126             127.292    -25.7869   -22.9706      NaN
  8739 101360.8              139.465             127.586    -25.8858   -23.069      NaN
  8746 101442.0              139.803             127.881    -26.0205   -23.1974      NaN
  8753 101523.2              140.141             128.177    -26.1341   -23.302      NaN
  8760 101604.4              140.479             128.475    -26.261   -23.4271      NaN
  8767 101685.6              140.817             128.773    -26.3793   -23.5356      NaN
  8774 101766.8              141.155             129.072    -26.5022   -23.6644      NaN
  8781 101848.0              141.494             129.372    -26.6215   -23.7904      NaN
  8788 101929.2              141.834             129.674    -26.7488   -23.8984      NaN
  8795 102010.4              142.173             129.976    -26.8705   -24.0077      NaN
  8802 102091.6              142.513             130.279    -27.0113   -24.1544      NaN
  8809 102172.8              142.851             130.583    -27.1183   -24.2692      NaN
  8816 102254.0              143.191             130.887    -27.2521   -24.4059      NaN
  8823 102335.2              143.529             131.193    -27.3639   -24.5008      NaN
  8830 102416.4              143.868             131.499    -27.491   -24.6208      NaN
  8837 102497.6              144.206             131.807    -27.6135   -24.7516      NaN
  8844 102578.8              144.544             132.114    -27.7368   -24.864      NaN
  8851 102660.0              144.882             132.424    -27.8538   -24.9833      NaN
  8858 102741.2              145.219             132.733    -27.9527   -25.0862      NaN
  8865 102822.4              145.557             133.043    -28.063   -25.1887      NaN
  8872 102903.6              145.896             133.354    -28.1649   -25.286      NaN
  8879 102984.8              146.233             133.666    -28.2725   -25.3904      NaN
  8886 103066.0              146.57             133.978    -28.3742   -25.5067      NaN
  8893 103147.2              146.909             134.29    -28.4633   -25.5915      NaN
  8900 103228.4              147.246             134.604    -28.5735   -25.6892      NaN
  8907 103309.6              147.586             134.918    -28.6563   -25.7664      NaN
  8914 103390.8              147.925             135.232    -28.7521   -25.8731      NaN
  8921 103472.0              148.264             135.547    -28.8481   -25.969      NaN
  8928 103553.2              148.602             135.863    -28.9455   -26.0719      NaN
  8935 103634.4              148.939             136.18    -29.0246   -26.1512      NaN
  8942 103715.6              149.278             136.496    -29.1132   -26.2313      NaN
  8949 103796.8              149.616             136.814    -29.2175   -26.3343      NaN
  8956 103878.0              149.955             137.131    -29.2973   -26.4258      NaN
  8963 103959.2              150.294             137.45    -29.3733   -26.4976      NaN
  8970 104040.4              150.632             137.769    -29.4636   -26.5845      NaN
  8977 104121.6              150.971             138.087    -29.5463   -26.6588      NaN
  8984 104202.8              151.31             138.407    -29.6276   -26.7478      NaN
  8991 104284.0              151.648             138.728    -29.7068   -26.8174      NaN
  8998 104365.2              151.987             139.049    -29.7928   -26.9331      NaN
  9005 104446.4              152.326             139.37    -29.8728   -27.0027      NaN
  9012 104527.6              152.666             139.692    -29.9509   -27.0755      NaN
  9019 104608.8              153.005             140.014    -30.0324   -27.1575      NaN
  9026 104690.0              153.344             140.336    -30.1135   -27.2385      NaN
  9033 104771.2              153.683             140.659    -30.1807   -27.3159      NaN
  9040 104852.4              154.021             140.983    -30.2568   -27.395      NaN
  9047 104933.6              154.358             141.306    -30.331   -27.466      NaN
  9054 105014.8              154.696             141.63    -30.4096   -27.5383      NaN
  9061 105096.0              155.033             141.955    -30.4894   -27.6257      NaN
  9068 105177.2              155.371             142.28    -30.5537   -27.6925      NaN
  9075 105258.4              155.709             142.606    -30.6362   -27.782      NaN
  9082 105339.6              156.047             142.932    -30.6955   -27.8434      NaN
  9089 105420.8              156.385             143.257    -30.7696   -27.9092      NaN
  9096 105502.0              156.722             143.584    -30.8423   -27.9781      NaN
  9103 105583.2              157.061             143.91    -30.9164   -28.0627      NaN
  9110 105664.4              157.399             144.236    -30.9856   -28.1332      NaN
  9117 105745.6              157.738             144.564    -31.041   -28.1917      NaN
  9124 105826.8              158.077             144.892    -31.11   -28.254      NaN
  9131 105908.0              158.416             145.22    -31.1627   -28.3206      NaN
  9138 105989.2              158.754             145.548    -31.2216   -28.3742      NaN
  9145 106070.4              159.093             145.877    -31.285   -28.444      NaN
  9152 106151.6              159.431             146.205    -31.3358   -28.4916      NaN
  9159 106232.8              159.768             146.534    -31.3872   -28.5418      NaN
  9166 106314.0              160.107             146.863    -31.4177   -28.5793      NaN
  9173 106395.2              160.445             147.192    -31.4479   -28.6123      NaN
  9180 106476.4              160.785             147.522    -31.4645   -28.6403      NaN
  9187 106557.6              161.123             147.852    -31.4748   -28.6426      NaN
  9194 106638.8              161.461             148.182    -31.4678   -28.6287      NaN
  9201 106720.0              161.799             148.513    -31.4378   -28.6076      NaN
  9208 106801.2              162.138             148.843    -31.378   -28.5555      NaN
  9215 106882.4              162.476             149.174    -31.2931   -28.4729      NaN
  9222 106963.6              162.815             149.505    -31.1675   -28.3503      NaN
  9229 107044.8              163.153             149.836    -30.9999   -28.1959      NaN
  9236 107126.0              163.493             150.167    -30.7738   -27.9754      NaN
  9243 107207.2              163.831             150.499    -30.4784   -27.6816      NaN
  9250 107288.4              164.169             150.83    -30.1081   -27.3124      NaN
  9257 107369.6              164.508             151.163    -29.6365   -26.841      NaN
  9264 107450.8              164.848             151.495    -29.0465   -26.2562      NaN
  9271 107532.0              165.186             151.828    -28.3227   -25.5211      NaN
  9278 107613.2              165.526             152.16    -27.4344   -24.6482      NaN
  9285 107694.4              165.864             152.494    -26.3712   -23.5839      NaN
  9292 107775.6              166.204             152.828    -25.0676   -22.2962      NaN
  9299 107856.8              166.54             153.161    -23.5159   -20.755      NaN
  9306 107938.0              166.879             153.494    -21.6638   -18.8993      NaN
  9313 108019.2              167.216             153.828    -19.4624   -16.6931      NaN
  9320 108100.4              167.554             154.162    -16.8568   -14.1004      NaN
  9327 108181.6              167.892             154.497    -13.8324   -11.082      NaN
  9334 108262.8              168.231             154.831    -10.3306    -7.576801      NaN
  9341 108344.0              168.568             155.166     -6.378783    -3.620897      NaN
  9348 108425.2              168.905             155.5     -1.974215     0.764979      NaN
  9355 108506.4              169.244             155.835      2.815089     5.539008      NaN
  9362 108587.6              169.582             156.17      7.890370    10.6134      NaN
  9369 108668.8              169.92             156.505     13.0805    15.7988      NaN
  9376 108750.0              170.259             156.841     18.1095    20.8167      NaN
  9383 108831.2              170.597             157.177     22.6789    25.3841      NaN
  9390 108912.4              170.936             157.513     26.4346    29.1392      NaN
  9397 108993.6              171.274             157.848     29.1255    31.8193      NaN
  9404 109074.8              171.613             158.185     30.6178    33.3106      NaN
  9411 109156.0              171.951             158.521     31.004    33.6944      NaN
  9418 109237.2              172.291             158.857     30.5103    33.1906      NaN
  9425 109318.4              172.63             159.193     29.453    32.1264      NaN
  9432 109399.6              172.969             159.53     28.137    30.8031      NaN
  9439 109480.8              173.307             159.867     26.7955    29.459      NaN
  9446 109562.0              173.645             160.203     25.5782    28.2452      NaN
  9453 109643.2              173.984             160.54     24.453    27.1101      NaN
  9460 109724.4              174.322             160.877     23.3489    25.9856      NaN
  9467 109805.6              174.66             161.214     22.2418    24.8667      NaN
  9474 109886.8              174.998             161.551     21.0417    23.6651      NaN
  9481 109968.0              175.336             161.887     19.6689    22.3014      NaN
  9488 110049.2              175.674             162.224     18.0621    20.6782      NaN
  9495 110130.4              176.012             162.561     16.1495    18.7612      NaN
  9502 110211.6              176.349             162.898     13.9048    16.5029      NaN
  9509 110292.8              176.687             163.235     11.3414    13.9257      NaN
  9516 110374.0              177.025             163.572      8.518324    11.1029      NaN
  9523 110455.2              177.363             163.91      5.525236     8.094197      NaN
  9530 110536.4              177.701             164.246      2.411393     4.979162      NaN
  9537 110617.6              178.041             164.583     -0.703466     1.856905      NaN
  9544 110698.8              178.379             164.92     -3.788010    -1.237790      NaN
  9551 110780.0              178.718             165.257     -6.740409    -4.188333      NaN
  9558 110861.2              179.056             165.594     -9.545140    -7.010503      NaN
  9565 110942.4              179.395             165.932    -12.1548    -9.627486      NaN
  9572 111023.6              179.734             166.269    -14.5487   -12.0381      NaN
  9579 111104.8              180.073             166.607    -16.7256   -14.2163      NaN
  9586 111186.0              180.413             166.944    -18.6703   -16.1731      NaN
  9593 111267.2              180.751             167.282    -20.4093   -17.9121      NaN
  9600 111348.4              181.089             167.62    -21.9615   -19.4762      NaN
  9607 111429.6              181.428             167.957    -23.3382   -20.8495      NaN
  9614 111510.8              181.766             168.295    -24.5745   -22.095      NaN
  9621 111592.0              182.105             168.633    -25.6729   -23.1991      NaN
  9628 111673.2              182.442             168.971    -26.6812   -24.2141      NaN
  9635 111754.4              182.781             169.309    -27.6652   -25.2153      NaN
  9642 111835.6              183.119             169.647    -28.7087   -26.2765      NaN
  9649 111916.8              183.455             169.985    -30.0074   -27.5535      NaN
  9656 111998.0              183.793             170.325    -31.9509   -29.4981      NaN
  9663 112079.2              184.131             170.663    -35.3581   -32.9204      NaN
  9670 112160.4              184.469             171.001    -41.694   -39.2805      NaN
  9677 112241.6              184.808             171.339    -51.8717   -49.4528      NaN
  9684 112322.8              185.147             171.677    -64.1394   -61.7383      NaN
  9691 112404.0              185.486             172.015    -78.1907   -75.7905      NaN
  9698 112485.2              185.826             172.353    -91.8281   -89.4347      NaN
  9705 112566.4              186.164             172.692    -96.5394   -94.1705      NaN
  9712 112647.6              186.503             173.031    -81.5943   -79.2234      NaN
  9719 112728.8              186.84             173.37    -38.4163   -36.033      NaN
  9726 112810.0              187.178             173.71     -5.821919    -3.444484      NaN
  9733 112891.2              187.515             174.05     10.2031    12.5578      NaN
  9740 112972.4              187.855             174.391     14.958    17.3106      NaN
  9747 113053.6              188.192             174.733     12.5578    14.8949      NaN
  9754 113134.8              188.53             175.073      6.257648     8.570619      NaN
  9761 113216.0              188.868             175.414     -1.302256     0.990173 0.756418
  9768 113297.2              189.206             175.754     -9.166569    -6.883569 0.755970
  9775 113378.4              189.544             176.095    -17.0433   -14.7721 0.755520
  9782 113459.6              189.882             176.435    -27.1207   -24.8675 0.755068
  9789 113540.8              190.22             176.776    -45.845   -43.5971 0.754616
  9796 113622.0              190.559             177.115    -77.5971   -75.3696 0.754162
  9803 113703.2              190.898             177.454   -116.922  -114.68 0.753708
  9810 113784.4              191.237             177.793   -157.003  -154.768 0.753252
  9817 113865.6              191.575             178.131   -190.548  -188.344 0.752796
  9824 113946.8              191.914             178.469   -216.81  -214.617 0.752338
  9831 114028.0              192.253             178.807   -242.723  -240.535 0.751878
  9838 114109.2              192.592             179.144   -266.689  -264.51 0.751418
  9845 114190.4              192.93             179.482   -273.409  -271.222 0.750955
  9852 114271.6              193.269             179.82   -245.491  -243.306 0.750490
  9859 114352.8              193.608             180.159   -189.575  -187.428 0.750021
  9866 114434.0              193.945             180.499   -147.739  -145.614 0.749549
  9873 114515.2              194.284             180.84   -118.237  -116.105 0.749074
  9880 114596.4              194.621             181.182    -97.0932   -94.9705 0.748596
  9887 114677.6              194.959             181.524    -81.8049   -79.6864 0.748116
  9894 114758.8              195.297             181.866    -70.7322   -68.6484 0.747633
  9901 114840.0              195.635             182.209    -62.6991   -60.6236 0.747147
  9908 114921.2              195.974             182.551    -56.8595   -54.7927 0.746661
  9915 115002.4              196.311             182.894    -52.6294   -50.5555 0.746171
  9922 115083.6              196.649             183.236    -49.5643   -47.4837 0.745679
  9929 115164.8              196.988             183.578    -47.3517   -45.2866 0.745186
  9936 115246.0              197.327             183.921    -45.7562   -43.7216 0.744689
  9943 115327.2              197.666             184.263    -44.6037   -42.5744 0.744191
  9950 115408.4              198.005             184.606    -43.7974   -41.7624 0.743689
  9957 115489.6              198.343             184.949    -43.2064   -41.1701 0.743185
  9964 115570.8              198.681             185.293    -42.8175   -40.8245 0.742679
  9971 115652.0              199.019             185.635    -42.5671   -40.5797 0.742170
  9978 115733.2              199.356             185.978    -42.3967   -40.4308 0.741658
  9985 115814.4              199.695             186.321    -42.2777   -40.2971 0.741145
  9992 115895.6              200.034             186.664    -42.2331   -40.2882 0.740628
  9999 115976.8              200.373             187.007    -42.2216   -40.2877 0.740109
 10006 116058.0              200.711             187.35    -42.25   -40.3631 0.739588
 10013 116139.2              201.049             187.694    -42.2907   -40.3937 0.739063
 10020 116220.4              201.388             188.037    -42.3525   -40.4164 0.738536
 10027 116301.6              201.727             188.38    -42.4136   -40.4536 0.738005
 10034 116382.8              202.065             188.724    -42.4764   -40.4881 0.737472
 10041 116464.0              202.404             189.067    -42.5701   -40.6272 0.736936
 10048 116545.2              202.743             189.411    -42.649   -40.7774 0.736396
 10055 116626.4              203.082             189.754    -42.736   -40.8384 0.735855
 10062 116707.6              203.421             190.098    -42.8366   -40.9161 0.735309
 10069 116788.8              203.759             190.44    -42.9556   -41.0321 0.734762
 10076 116870.0              204.097             190.784    -43.0555   -41.1088 0.734211
 10083 116951.2              204.434             191.128    -43.1515   -41.2453 0.733655
 10090 117032.4              204.773             191.473    -43.2556   -41.4002 0.733096
 10097 117113.6              205.111             191.816    -43.3536   -41.5369 0.732536
 10104 117194.8              205.448             192.16    -43.4519   -41.7081 0.731972
 10111 117276.0              205.787             192.503    -43.5465   -41.8145 0.731404
 10118 117357.2              206.125             192.848    -43.6604   -41.907 0.730832
 10125 117438.4              206.462             193.191    -43.7835   -42.0208 0.730259
 10132 117519.6              206.801             193.535    -43.8962   -42.1427 0.729680
 10139 117600.8              207.14             193.879    -44.0157   -42.2817 0.729099
 10146 117682.0              207.478             194.223    -44.1309   -42.4115 0.728513
 10153 117763.2              207.817             194.567    -44.2531   -42.4939 0.727924
 10160 117844.4              208.156             194.911    -44.3797   -42.5814 0.727331
 10167 117925.6              208.494             195.255    -44.5078   -42.7049 0.726735
 10174 118006.8              208.832             195.599    -44.6271   -42.8347 0.726135
 10181 118088.0              209.171             195.943    -44.7665   -42.9933 0.725531
 10188 118169.2              209.508             196.287    -44.8778   -43.1573 0.724923
 10195 118250.4              209.847             196.631    -44.9911   -43.3295 0.724311
 10202 118331.6              210.185             196.975    -45.0915   -43.4368 0.723694
 10209 118412.8              210.523             197.318    -45.2006   -43.563 0.723076
 10216 118494.0              210.861             197.663    -45.2983   -43.7182 0.722450
 10223 118575.2              211.198             198.008    -45.4166   -43.8819 0.721820
 10230 118656.4              211.537             198.352    -45.5473   -43.9613 0.721187
 10237 118737.6              211.876             198.696    -45.6901   -44.006 0.720550
 10244 118818.8              212.214             199.04    -45.8267   -44.1083 0.719908
 10251 118900.0              212.553             199.384    -45.9737   -44.3129 0.719262
 10258 118981.2              212.892             199.729    -46.1144   -44.4583 0.718611
 10265 119062.4              213.231             200.073    -46.2614   -44.5895 0.717956
 10272 119143.6              213.568             200.416    -46.3984   -44.7339 0.717297
 10279 119224.8              213.906             200.762    -46.5414   -44.8339 0.716630
 10286 119306.0              214.244             201.106    -46.6788   -45.0036 0.715960
 10293 119387.2              214.584             201.45    -46.8019   -45.147 0.715286
 10300 119468.4              214.922             201.795    -46.9365   -45.271 0.714604
 10307 119549.6              215.26             202.139    -47.0633   -45.3788 0.713919
 10314 119630.8              215.599             202.484    -47.2171   -45.4808 0.713228
 10321 119712.0              215.937             202.828    -47.3587   -45.7254 0.712534
 10328 119793.2              216.275             203.172    -47.5059   -45.8711 0.711832
 10335 119874.4              216.613             203.517    -47.6688   -46.0929 0.711126
 10342 119955.6              216.951             203.862    -47.8067   -46.1904 0.710413
 10349 120036.8              217.29             204.206    -47.9417   -46.3763 0.709696
 10356 120118.0              217.629             204.551    -48.0612   -46.5267 0.708972
 10363 120199.2              217.968             204.895    -48.2046   -46.7478 0.708243
 10370 120280.4              218.305             205.239    -48.3812   -46.9621 0.707509
 10377 120361.6              218.643             205.584    -48.5347   -47.1477 0.706767
 10384 120442.8              218.981             205.928    -48.6641   -47.3837 0.706021
 10391 120524.0              219.321             206.273    -48.7978   -47.5493 0.705267
 10398 120605.2              219.658             206.617    -48.9555   -47.6539 0.704509
 10405 120686.4              219.997             206.962    -49.132   -47.7867 0.703742
 10412 120767.6              220.336             207.307    -49.2971   -47.926 0.702968
 10419 120848.8              220.673             207.651    -49.4911   -48.0958 0.702189
 10426 120930.0              221.012             207.996    -49.6718   -48.2155 0.701403
 10433 121011.2              221.351             208.34    -49.8505   -48.4128 0.700611
 10440 121092.4              221.689             208.685    -50.018   -48.536 0.699811
 10447 121173.6              222.028             209.03    -50.205   -48.7427 0.699004
 10454 121254.8              222.366             209.374    -50.3911   -48.8916 0.698190
 10461 121336.0              222.704             209.719    -50.5871   -49.025 0.697368
 10468 121417.2              223.044             210.064    -50.7774   -49.1934 0.696538
 10475 121498.4              223.383             210.409    -50.9622   -49.421 0.695702
 10482 121579.6              223.721             210.754    -51.14   -49.6491 0.694857
 10489 121660.8              224.059             211.099    -51.3209   -49.8383 0.694004
 10496 121742.0              224.397             211.443    -51.5035   -50.0875 0.693144
 10503 121823.2              224.736             211.788    -51.6821   -50.2752 0.692275
 10510 121904.4              225.073             212.133    -51.8763   -50.5521 0.691400
 10517 121985.6              225.411             212.477    -52.0462   -50.7471 0.690514
 10524 122066.8              225.749             212.823    -52.227   -50.8784 0.689619
 10531 122148.0              226.087             213.167    -52.3899   -50.8989 0.688718
 10538 122229.2              226.425             213.512    -52.6152   -51.1018 0.687805
 10545 122310.4              226.764             213.857    -52.8638   -51.3154 0.686885
 10552 122391.6              227.103             214.201    -53.0561   -51.5116 0.685955
 10559 122472.8              227.44             214.546    -53.2811   -51.8978 0.685016
 10566 122554.0              227.778             214.891    -53.512   -52.2402 0.684066
 10573 122635.2              228.117             215.236    -53.7789   -52.5429 0.683106
 10580 122716.4              228.456             215.581    -54.0283   -52.8171 0.682139
 10587 122797.6              228.795             215.926    -54.2568   -53.121 0.681159
 10594 122878.8              229.135             216.271    -54.4976   -53.31 0.680169
 10601 122960.0              229.473             216.616    -54.744   -53.5502 0.679169
 10608 123041.2              229.812             216.961    -54.9703   -53.782 0.678157
 10615 123122.4              230.15             217.306    -55.2048   -53.9127 0.677133
 10622 123203.6              230.488             217.651    -55.469   -54.1915 0.676101
 10629 123284.8              230.826             217.996    -55.7245   -54.4418 0.675054
 10636 123366.0              231.164             218.341    -55.9695   -54.6853 0.673997
 10643 123447.2              231.501             218.686    -56.1902   -54.9624 0.672927
 10650 123528.4              231.841             219.031    -56.4538   -55.2525 0.671849
 10657 123609.6              232.178             219.376    -56.7304   -55.5368 0.670755
 10664 123690.8              232.516             219.721    -57.0144   -55.9087 0.669647
 10671 123772.0              232.854             220.066    -57.2785   -56.2099 0.668527
 10678 123853.2              233.192             220.411    -57.5259   -56.4076 0.667396
 10685 123934.4              233.53             220.756    -57.7659   -56.6574 0.666251
 10692 124015.6              233.869             221.101    -58.0611   -56.9762 0.665090
 10699 124096.8              234.208             221.446    -58.3403   -57.2485 0.663917
 10706 124178.0              234.548             221.79    -58.6509   -57.5365 0.662731
 10713 124259.2              234.886             222.136    -58.9316   -57.9979 0.661526
 10720 124340.4              235.223             222.48    -59.2762   -58.3016 0.660309
 10727 124421.6              235.561             222.827    -59.6516   -58.6901 0.659071
 10734 124502.8              235.899             223.171    -59.9832   -59.0333 0.657823
 10741 124584.0              236.238             223.516    -60.3279   -59.4302 0.656557
 10748 124665.2              236.576             223.861    -60.6804   -59.7641 0.655275
 10755 124746.4              236.914             224.206    -61.0263   -60.1177 0.653977
 10762 124827.6              237.252             224.551    -61.3723   -60.4567 0.652661
 10769 124908.8              237.59             224.896    -61.6953   -60.7643 0.651328
 10776 124990.0              237.928             225.241    -62.0481   -61.1817 0.649978
 10783 125071.2              238.267             225.586    -62.3821   -61.5635 0.648605
 10790 125152.4              238.606             225.931    -62.7464   -61.8789 0.647219
 10797 125233.6              238.944             226.276    -63.1365   -62.2071 0.645807
 10804 125314.8              239.284             226.62    -63.5036   -62.5345 0.644383
 10811 125396.0              239.622             226.966    -63.9107   -63.0549 0.642934
 10818 125477.2              239.961             227.311    -64.2414   -63.4362 0.641463
 10825 125558.4              240.298             227.656    -64.6428   -63.8355 0.639972
 10832 125639.6              240.635             228    -65.0651   -64.2939 0.638464
 10839 125720.8              240.973             228.345    -65.4851   -64.6181 0.636929
 10846 125802.0              241.312             228.691    -65.9359   -65.0005 0.635370
 10853 125883.2              241.651             229.035    -66.3832   -65.3494 0.633792
 10860 125964.4              241.989             229.381    -66.8169   -65.7848 0.632183
 10867 126045.6              242.326             229.725    -67.2924   -66.2811 0.630556
 10874 126126.8              242.665             230.07    -67.7538   -66.743 0.628902
 10881 126208.0              243.004             230.415    -68.1557   -67.0894 0.627220
 10888 126289.2              243.341             230.759    -68.6199   -67.5954 0.625516
 10895 126370.4              243.68             231.104    -69.0802   -68.1809 0.623779
 10902 126451.6              244.02             231.449    -69.5636   -68.6821 0.622016
 10909 126532.8              244.358             231.794    -70.064   -69.1357 0.620226
 10916 126614.0              244.697             232.139    -70.5726   -69.6469 0.618405
 10923 126695.2              245.035             232.483    -71.1189   -70.1783 0.616554
 10930 126776.4              245.373             232.828    -71.6457   -70.7504 0.614671
 10937 126857.6              245.711             233.173    -72.1993   -71.2624 0.612755
 10944 126938.8              246.049             233.518    -72.7506   -71.8374 0.610807
 10951 127020.0              246.387             233.862    -73.3343   -72.4649 0.608828
 10958 127101.2              246.725             234.207    -73.9182   -73.1668 0.606813
 10965 127182.4              247.064             234.551    -74.5338   -73.7857 0.604765
 10972 127263.6              247.402             234.896    -75.1487   -74.3719 0.602675
 10979 127344.8              247.742             235.241    -75.7805   -75.0391 0.600544
 10986 127426.0              248.081             235.587    -76.4444   -75.7477 0.598371
 10993 127507.2              248.419             235.932    -77.0794   -76.428 0.596158
 11000 127588.4              248.757             236.277    -77.7573   -77.0662 0.593909
 11007 127669.6              249.097             236.622    -78.4425   -77.72 0.591616
 11014 127750.8              249.436             236.966    -79.1362   -78.3395 0.589282
 11021 127832.0              249.773             237.311    -79.8656   -78.9562 0.586897
 11028 127913.2              250.111             237.657    -80.6171   -79.707 0.584465
 11035 127994.4              250.449             238.001    -81.3828   -80.3938 0.581992
 11042 128075.6              250.787             238.346    -82.1397   -81.3303 0.579463
 11049 128156.8              251.126             238.691    -82.9856   -82.173 0.576882
 11056 128238.0              251.464             239.036    -83.791   -82.9658 0.574251
 11063 128319.2              251.803             239.381    -84.6278   -83.9088 0.571560
 11070 128400.4              252.142             239.726    -85.4808   -84.8867 0.568812
 11077 128481.6              252.479             240.071    -86.3058   -85.6297 0.566012
 11084 128562.8              252.818             240.416    -87.214   -86.5802 0.563147
 11091 128644.0              253.155             240.76    -88.1856   -87.6836 0.560228
 11098 128725.2              253.494             241.105    -89.1804   -88.8138 0.557240
 11105 128806.4              253.832             241.449    -90.1794   -89.937 0.554191
 11112 128887.6              254.17             241.795    -91.1865   -90.9559 0.551058
 11119 128968.8              254.509             242.139    -92.2323   -91.9442 0.547866
 11126 129050.0              254.847             242.485    -93.2858   -92.8741 0.544592
 11133 129131.2              255.185             242.829    -94.3778   -93.8172 0.541247
 11140 129212.4              255.522             243.174    -95.5019   -94.9479 0.537829
 11147 129293.6              255.86             243.519    -96.6621   -96.0798 0.534320
 11154 129374.8              256.199             243.863    -97.831   -97.2022 0.530734
 11161 129456.0              256.536             244.208    -99.0399   -98.4178 0.527056
 11168 129537.2              256.877             244.552   -100.284   -99.6554 0.523294
 11175 129618.4              257.215             244.897   -101.563  -101.082 0.519431
 11182 129699.6              257.552             245.242   -102.874  -102.565 0.515460
 11189 129780.8              257.89             245.586   -104.165  -103.984 0.511407
 11196 129862.0              258.228             245.931   -105.543  -105.284 0.507240
 11203 129943.2              258.568             246.276   -106.97  -106.695 0.502970
 11210 130024.4              258.906             246.62   -108.398  -107.985 0.498580
 11217 130105.6              259.245             246.965   -109.928  -109.52 0.494071
 11224 130186.8              259.584             247.309   -111.476  -111.266 0.489452
 11231 130268.0              259.922             247.654   -113.106  -112.935 0.484707
 11238 130349.2              260.259             247.998   -114.777  -114.544 0.479827
 11245 130430.4              260.597             248.342   -116.499  -116.366 0.474805
 11252 130511.6              260.936             248.687   -118.261  -118.029 0.469636
 11259 130592.8              261.275             249.032   -120.07  -119.806 0.464327
 11266 130674.0              261.613             249.376   -121.933  -121.787 0.458875
 11273 130755.2              261.952             249.721   -123.879  -123.645 0.453244
 11280 130836.4              262.29             250.065   -125.9  -125.668 0.447456
 11287 130917.6              262.628             250.409   -127.996  -127.824 0.441495
 11294 130998.8              262.966             250.753   -130.154  -130.068 0.435362
 11301 131080.0              263.305             251.098   -132.4  -132.46 0.429016
 11308 131161.2              263.643             251.442   -134.695  -134.736 0.422489
 11315 131242.4              263.982             251.787   -137.036  -136.95 0.415742
 11322 131323.6              264.32             252.131   -139.482  -139.25 0.408803
 11329 131404.8              264.658             252.476   -142.046  -141.867 0.401612
 11336 131486.0              264.996             252.819   -144.642  -144.479 0.394216
 11343 131567.2              265.335             253.164   -147.336  -147.195 0.386552
 11350 131648.4              265.674             253.508   -150.111  -149.911 0.378650
 11357 131729.6              266.011             253.852   -152.991  -152.795 0.370458
 11364 131810.8              266.351             254.195   -155.95  -155.782 0.362026
 11371 131892.0              266.689             254.54   -158.964  -158.678 0.353250
 11378 131973.2              267.027             254.884   -162.108  -161.869 0.344181
 11385 132054.4              267.365             255.229   -165.348  -165.339 0.334786
 11392 132135.6              267.704             255.572   -168.721  -168.723 0.325086
 11399 132216.8              268.043             255.916   -172.178  -172.141 0.314992
 11406 132298.0              268.381             256.261   -175.692  -175.745 0.304488
 11413 132379.2              268.719             256.604   -179.348  -179.443 0.293641
 11420 132460.4              269.057             256.949   -183.138  -183.161 0.282325
 11427 132541.6              269.394             257.292   -186.997  -187.147 0.270622
 11434 132622.8              269.732             257.636   -190.97  -191.212 0.258403
 11441 132704.0              270.071             257.98   -194.957  -195.327 0.245702
 11448 132785.2              270.409             258.324   -198.916  -199.139 0.232464
 11455 132866.4              270.749             258.667   -202.915  -203.022 0.218696
 11462 132947.6              271.087             259.011   -206.983  -207.085 0.204300
 11469 133028.8              271.424             259.355   -211.043  -211.256 0.189294
 11476 133110.0              271.763             259.698   -214.566  -214.917 0.173605
 11483 133191.2              272.102             260.042   -216.582  -216.922 0.157191
 11490 133272.4              272.44             260.385   -215.259  -215.622 0.140052
 11497 133353.6              272.778             260.728   -212.076  -212.501 0.122051
 11504 133434.8              273.117             261.073   -209.472  -209.977 0.103090
 11511 133516.0              273.455             261.417   -208.116  -208.888 0.083231
 11518 133597.2              273.794             261.762   -207.706  -208.587 0.062258
 11525 133678.4              274.132             262.105   -207.559  -208.493 0.040292
 11532 133759.6              274.472             262.449   -207.512  -208.468 0.017039
 11539 133840.8              274.81             262.792   -207.547  -208.406      NaN
 11546 133922.0              275.149             263.136   -208.029  -208.928      NaN
 11553 134003.2              275.487             263.48   -209.078  -210.087      NaN
 11560 134084.4              275.826             263.825   -210.019  -210.68      NaN
 11567 134165.6              276.163             264.169   -211.394  -212.18      NaN
 11574 134246.8              276.502             264.513   -213.299  -214.323      NaN
 11581 134328.0              276.839             264.857   -216.211  -217.235      NaN
 11588 134409.2              277.177             265.201   -220.134  -220.992      NaN
 11595 134490.4              277.516             265.544   -225.011  -225.822      NaN
 11602 134571.6              277.854             265.889   -231.806  -232.568      NaN
 11609 134652.8              278.192             266.232   -240.68  -241.571      NaN
 11616 134734.0              278.531             266.575   -260.008  -260.783      NaN
 11623 134815.2              278.869             266.919   -259.749  -260.63      NaN
 11630 134896.4              279.207             267.262   -265.925  -266.842      NaN
 11637 134977.6              279.545             267.606   -265.296  -266.126      NaN
 11644 135058.8              279.885             267.95   -261.16  -261.968      NaN
 11651 135140.0              280.223             268.294   -255.077  -255.756      NaN
 11658 135221.2              280.562             268.637   -248.021  -248.654      NaN
 11665 135302.4              280.899             268.981   -237.712  -238.304      NaN
 11672 135383.6              281.237             269.325   -229.096  -229.666      NaN
 11679 135464.8              281.575             269.67   -217.787  -218.358      NaN
 11686 135546.0              281.914             270.014   -206.787  -207.617      NaN
 11693 135627.2              282.251             270.358   -186.441  -187.265      NaN
 11700 135708.4              282.59             270.704   -163.127  -163.734      NaN
 11707 135789.6              282.927             271.049   -145.005  -145.518      NaN
 11714 135870.8              283.266             271.394   -130.873  -131.566      NaN
 11721 135952.0              283.604             271.74   -119.893  -120.612      NaN
 11728 136033.2              283.943             272.085   -111.383  -112.117      NaN
 11735 136114.4              284.282             272.431   -104.78  -105.613      NaN
 11742 136195.6              284.62             272.777    -99.6613  -100.779      NaN
 11749 136276.8              284.958             273.122    -95.7111   -96.8234      NaN
 11756 136358.0              285.297             273.468    -92.6631   -93.6852      NaN
 11763 136439.2              285.636             273.814    -90.2924   -91.2616      NaN
 11770 136520.4              285.974             274.16    -88.4883   -89.3082      NaN
 11777 136601.6              286.312             274.505    -87.094   -87.8217      NaN
 11784 136682.8              286.651             274.85    -85.9983   -86.6431      NaN
 11791 136764.0              286.989             275.195    -85.1778   -85.8369      NaN
 11798 136845.2              287.327             275.541    -84.5493   -85.1193      NaN
 11805 136926.4              287.666             275.887    -84.0671   -84.76      NaN
 11812 137007.6              288.005             276.232    -83.6904   -84.7455      NaN
 11819 137088.8              288.342             276.578    -83.4003   -84.4949      NaN
 11826 137170.0              288.681             276.923    -83.168   -84.1763      NaN
 11833 137251.2              289.02             277.268    -83.0028   -83.9764      NaN
 11840 137332.4              289.358             277.614    -82.8689   -83.7729      NaN
 11847 137413.6              289.696             277.959    -82.7645   -83.5398      NaN
 11854 137494.8              290.034             278.305    -82.6949   -83.6603      NaN
 11861 137576.0              290.372             278.65    -82.635   -83.913      NaN
 11868 137657.2              290.711             278.995    -82.6016   -83.646      NaN
 11875 137738.4              291.051             279.34    -82.5664   -83.578      NaN
 11882 137819.6              291.389             279.685    -82.5375   -83.6595      NaN
 11889 137900.8              291.726             280.03    -82.5071   -83.5276      NaN
 11896 137982.0              292.064             280.375    -82.4848   -83.493      NaN
 11903 138063.2              292.402             280.721    -82.4813   -83.5118      NaN
 11910 138144.4              292.74             281.066    -82.4772   -83.5718      NaN
 11917 138225.6              293.079             281.411    -82.4803   -83.5388      NaN
 11924 138306.8              293.417             281.755    -82.48   -83.6144      NaN
 11931 138388.0              293.755             282.1    -82.497   -83.6631      NaN
 11938 138469.2              294.093             282.445    -82.5425   -83.5941      NaN
 11945 138550.4              294.432             282.79    -82.5842   -83.7668      NaN
 11952 138631.6              294.77             283.133    -82.6315   -84.0934      NaN
 11959 138712.8              295.109             283.479    -82.6962   -84.1538      NaN
 11966 138794.0              295.447             283.824    -82.7435   -84.2138      NaN
 11973 138875.2              295.785             284.168    -82.7794   -84.141      NaN
 11980 138956.4              296.123             284.513    -82.8147   -84.252      NaN
 11987 139037.6              296.461             284.857    -82.8488   -84.1639      NaN
 11994 139118.8              296.799             285.201    -82.8656   -84.2986      NaN
 12001 139200.0              297.138             285.546    -82.8911   -84.2424      NaN
 12008 139281.2              297.478             285.89    -82.9178   -84.109      NaN
 12015 139362.4              297.814             286.234    -82.9653   -84.2948      NaN
 12022 139443.6              298.152             286.579    -83.0273   -84.3796      NaN
 12029 139524.8              298.491             286.923    -83.0735   -84.439      NaN
 12036 139606.0              298.83             287.266    -83.1011   -84.4718      NaN
 12043 139687.2              299.168             287.611    -83.1139   -84.4454      NaN
 12050 139768.4              299.325             287.953    -83.1146   -84.5418      NaN
 12057 139849.6              299.325             288.288    -83.0502   -84.5551      NaN
 12064 139930.8              299.306             288.613    -82.8773   -84.3534      NaN
 12071 140012.0              299.283             288.928    -82.5379   -83.9485      NaN
 12078 140093.2              299.26             289.232    -81.9716   -83.3324      NaN
 12085 140174.4              299.241             289.527    -81.1418   -82.4287      NaN
 12092 140255.6              299.225             289.811    -80.0827   -81.2886      NaN
 12099 140336.8              299.216             290.086    -78.8115   -80.3619      NaN
 12100 140348.4              299.215             290.124    -78.6146   -80.1765      NaN