File: z_unorganized_archive/i_data_processed/0.25Kmin/1.6wt%_climb_proc.txt
 Index  Time(s)  Furnace Temperature(K)  Sample Temperature(K)  HeatFlow(mW)  Q_Corrected       Fc
  8501  98600.0              127.949             118.559    -16.3008   -13.8228      NaN
  8508  98681.2              128.287             118.793    -16.5606   -14.0521      NaN
  8515  98762.4              128.627             119.03    -16.8151   -14.2962      NaN
  8522  98843.6              128.965             119.269    -17.0676   -14.533      NaN
  8529  98924.8              129.304             119.511    -17.3165   -14.768      NaN
  8536  99006.0              129.643             119.756    -17.578   -15.0219      NaN
  8543  99087.2              129.982             120.002    -17.8364   -15.257      NaN
  8550  99168.4              130.322             120.251    -18.1059   -15.5143      NaN
  8557  99249.6              130.661             120.502    -18.3503   -15.7441      NaN
  8564  99330.8              130.999             120.756    -18.621   -16.0083      NaN
  8571  99412.0              131.338             121.011    -18.8882   -16.2673      NaN
  8578  99493.2              131.676             121.269    -19.1738   -16.5387      NaN
  8585  99574.4              132.014             121.529    -19.4348   -16.7812      NaN
  8592  99655.6              132.353             121.79    -19.705   -17.0406      NaN
  8599  99736.8              132.692             122.054    -19.9669   -17.2864      NaN
  8606  99818.0              133.032             122.319    -20.2289   -17.556      NaN
  8613  99899.2              133.371             122.585    -20.475   -17.785      NaN
  8620  99980.4              133.71             122.854    -20.6859   -17.9873      NaN
  8627 100061.6              134.049             123.124    -20.8819   -18.1741      NaN
  8634 100142.8              134.388             123.397    -21.0276   -18.2954      NaN
  8641 100224.0              134.727             123.672    -21.1417   -18.4177      NaN
  8648 100305.2              135.065             123.948    -21.2432   -18.5138      NaN
  8655 100386.4              135.404             124.224    -21.3315   -18.5869      NaN
  8662 100467.6              135.743             124.503    -21.3897   -18.6313      NaN
  8669 100548.8              136.08             124.784    -21.4914   -18.7388      NaN
  8676 100630.0              136.418             125.065    -21.5684   -18.801      NaN
  8683 100711.2              136.756             125.348    -21.676   -18.8967      NaN
  8690 100792.4              137.094             125.632    -21.7823   -19.0001      NaN
  8697 100873.6              137.432             125.917    -21.9052   -19.1095      NaN
  8704 100954.8              137.769             126.204    -22.0167   -19.2254      NaN
  8711 101036.0              138.107             126.492    -22.1421   -19.3446      NaN
  8718 101117.2              138.446             126.782    -22.2524   -19.4403      NaN
  8725 101198.4              138.784             127.072    -22.3779   -19.5666      NaN
  8732 101279.6              139.123             127.364    -22.483   -19.6667      NaN
  8739 101360.8              139.461             127.657    -22.6032   -19.7865      NaN
  8746 101442.0              139.801             127.95    -22.7215   -19.8984      NaN
  8753 101523.2              140.139             128.245    -22.8366   -20.0045      NaN
  8760 101604.4              140.479             128.541    -22.9577   -20.1238      NaN
  8767 101685.6              140.818             128.838    -23.0681   -20.2244      NaN
  8774 101766.8              141.157             129.136    -23.183   -20.3451      NaN
  8781 101848.0              141.496             129.435    -23.2845   -20.4534      NaN
  8788 101929.2              141.834             129.735    -23.3981   -20.5477      NaN
  8795 102010.4              142.172             130.037    -23.5151   -20.6523      NaN
  8802 102091.6              142.511             130.339    -23.6272   -20.7703      NaN
  8809 102172.8              142.849             130.641    -23.7428   -20.8937      NaN
  8816 102254.0              143.187             130.945    -23.84   -20.9938      NaN
  8823 102335.2              143.525             131.249    -23.9488   -21.0857      NaN
  8830 102416.4              143.863             131.555    -24.0485   -21.1782      NaN
  8837 102497.6              144.201             131.86    -24.1483   -21.2864      NaN
  8844 102578.8              144.539             132.168    -24.2477   -21.3749      NaN
  8851 102660.0              144.879             132.476    -24.3513   -21.4809      NaN
  8858 102741.2              145.216             132.784    -24.4613   -21.5949      NaN
  8865 102822.4              145.555             133.093    -24.5555   -21.6812      NaN
  8872 102903.6              145.894             133.403    -24.658   -21.7792      NaN
  8879 102984.8              146.233             133.714    -24.7406   -21.8585      NaN
  8886 103066.0              146.571             134.025    -24.8291   -21.9616      NaN
  8893 103147.2              146.909             134.336    -24.9223   -22.0505      NaN
  8900 103228.4              147.248             134.65    -25.0177   -22.1333      NaN
  8907 103309.6              147.588             134.962    -25.118   -22.228      NaN
  8914 103390.8              147.925             135.276    -25.1958   -22.3167      NaN
  8921 103472.0              148.265             135.59    -25.2977   -22.4186      NaN
  8928 103553.2              148.603             135.906    -25.3717   -22.4981      NaN
  8935 103634.4              148.942             136.223    -25.472   -22.5986      NaN
  8942 103715.6              149.28             136.539    -25.5479   -22.6661      NaN
  8949 103796.8              149.618             136.855    -25.6387   -22.7555      NaN
  8956 103878.0              149.957             137.173    -25.7166   -22.8451      NaN
  8963 103959.2              150.295             137.49    -25.8082   -22.9325      NaN
  8970 104040.4              150.634             137.808    -25.8791   -23      NaN
  8977 104121.6              150.971             138.127    -25.9744   -23.0869      NaN
  8984 104202.8              151.31             138.446    -26.05   -23.1702      NaN
  8991 104284.0              151.648             138.767    -26.132   -23.2426      NaN
  8998 104365.2              151.986             139.087    -26.2073   -23.3476      NaN
  9005 104446.4              152.324             139.408    -26.2803   -23.4102      NaN
  9012 104527.6              152.663             139.729    -26.3627   -23.4874      NaN
  9019 104608.8              153.002             140.05    -26.437   -23.5621      NaN
  9026 104690.0              153.34             140.373    -26.5173   -23.6423      NaN
  9033 104771.2              153.678             140.694    -26.5826   -23.7178      NaN
  9040 104852.4              154.016             141.017    -26.6679   -23.8062      NaN
  9047 104933.6              154.354             141.34    -26.7392   -23.8742      NaN
  9054 105014.8              154.691             141.665    -26.8065   -23.9353      NaN
  9061 105096.0              155.03             141.989    -26.871   -24.0073      NaN
  9068 105177.2              155.367             142.313    -26.9497   -24.0885      NaN
  9075 105258.4              155.706             142.638    -27.0135   -24.1593      NaN
  9082 105339.6              156.045             142.962    -27.1032   -24.2511      NaN
  9089 105420.8              156.385             143.288    -27.1693   -24.309      NaN
  9096 105502.0              156.724             143.613    -27.2434   -24.3791      NaN
  9103 105583.2              157.063             143.94    -27.3007   -24.4469      NaN
  9110 105664.4              157.403             144.265    -27.3797   -24.5273      NaN
  9117 105745.6              157.741             144.592    -27.4429   -24.5935      NaN
  9124 105826.8              158.08             144.92    -27.5096   -24.6535      NaN
  9131 105908.0              158.419             145.247    -27.5873   -24.7452      NaN
  9138 105989.2              158.757             145.576    -27.6391   -24.7917      NaN
  9145 106070.4              159.096             145.903    -27.7168   -24.8757      NaN
  9152 106151.6              159.433             146.232    -27.7675   -24.9233      NaN
  9159 106232.8              159.769             146.56    -27.8378   -24.9924      NaN
  9166 106314.0              160.106             146.888    -27.8812   -25.0428      NaN
  9173 106395.2              160.441             147.218    -27.9469   -25.1112      NaN
  9180 106476.4              160.777             147.547    -27.9885   -25.1643      NaN
  9187 106557.6              161.114             147.877    -28.0472   -25.2151      NaN
  9194 106638.8              161.452             148.206    -28.0739   -25.2348      NaN
  9201 106720.0              161.792             148.535    -28.1144   -25.2843      NaN
  9208 106801.2              162.131             148.866    -28.1419   -25.3194      NaN
  9215 106882.4              162.471             149.196    -28.1621   -25.3419      NaN
  9222 106963.6              162.812             149.526    -28.172   -25.3549      NaN
  9229 107044.8              163.154             149.856    -28.1825   -25.3785      NaN
  9236 107126.0              163.494             150.188    -28.1622   -25.3638      NaN
  9243 107207.2              163.835             150.519    -28.161   -25.3642      NaN
  9250 107288.4              164.174             150.85    -28.1104   -25.3148      NaN
  9257 107369.6              164.513             151.183    -28.0658   -25.2703      NaN
  9264 107450.8              164.852             151.514    -28.012   -25.2217      NaN
  9271 107532.0              165.189             151.847    -27.9101   -25.1085      NaN
  9278 107613.2              165.526             152.18    -27.8201   -25.034      NaN
  9285 107694.4              165.863             152.513    -27.6754   -24.8882      NaN
  9292 107775.6              166.199             152.845    -27.5223   -24.7509      NaN
  9299 107856.8              166.533             153.178    -27.3142   -24.5533      NaN
  9306 107938.0              166.869             153.511    -27.085   -24.3205      NaN
  9313 108019.2              167.206             153.843    -26.7938   -24.0245      NaN
  9320 108100.4              167.543             154.177    -26.4639   -23.7074      NaN
  9327 108181.6              167.88             154.51    -26.0729   -23.3225      NaN
  9334 108262.8              168.22             154.843    -25.62   -22.8662      NaN
  9341 108344.0              168.559             155.177    -25.118   -22.3601      NaN
  9348 108425.2              168.898             155.51    -24.5468   -21.8076      NaN
  9355 108506.4              169.24             155.843    -23.9278   -21.2039      NaN
  9362 108587.6              169.58             156.176    -23.2504   -20.5274      NaN
  9369 108668.8              169.919             156.51    -22.5359   -19.8176      NaN
  9376 108750.0              170.259             156.844    -21.7885   -19.0812      NaN
  9383 108831.2              170.598             157.179    -21.021   -18.3158      NaN
  9390 108912.4              170.939             157.514    -20.2625   -17.558      NaN
  9397 108993.6              171.278             157.849    -19.5127   -16.8189      NaN
  9404 109074.8              171.618             158.184    -18.775   -16.0822      NaN
  9411 109156.0              171.955             158.519    -18.0759   -15.3856      NaN
  9418 109237.2              172.293             158.855    -17.3884   -14.708      NaN
  9425 109318.4              172.629             159.19    -16.7304   -14.057      NaN
  9432 109399.6              172.965             159.524    -16.0697   -13.4036      NaN
  9439 109480.8              173.301             159.86    -15.432   -12.7686      NaN
  9446 109562.0              173.638             160.196    -14.8147   -12.1477      NaN
  9453 109643.2              173.976             160.532    -14.315   -11.6578      NaN
  9460 109724.4              174.315             160.868    -13.9394   -11.3026      NaN
  9467 109805.6              174.654             161.203    -13.7973   -11.1724      NaN
  9474 109886.8              174.993             161.539    -13.9104   -11.287      NaN
  9481 109968.0              175.332             161.875    -14.3242   -11.6917      NaN
  9488 110049.2              175.672             162.211    -15.0705   -12.4545      NaN
  9495 110130.4              176.012             162.546    -16.0895   -13.4778      NaN
  9502 110211.6              176.352             162.883    -17.3657   -14.7676      NaN
  9509 110292.8              176.691             163.219    -18.8019   -16.2176      NaN
  9516 110374.0              177.03             163.556    -20.2967   -17.7122      NaN
  9523 110455.2              177.369             163.893    -21.7914   -19.2225      NaN
  9530 110536.4              177.706             164.23    -23.1631   -20.5953      NaN
  9537 110617.6              178.043             164.566    -24.4164   -21.8561      NaN
  9544 110698.8              178.379             164.903    -25.4777   -22.9275      NaN
  9551 110780.0              178.716             165.239    -26.392   -23.8399      NaN
  9558 110861.2              179.053             165.576    -27.1263   -24.5916      NaN
  9565 110942.4              179.391             165.912    -27.746   -25.2186      NaN
  9572 111023.6              179.729             166.25    -28.2271   -25.7164      NaN
  9579 111104.8              180.069             166.587    -28.6296   -26.1202      NaN
  9586 111186.0              180.408             166.924    -28.9537   -26.4566      NaN
  9593 111267.2              180.747             167.261    -29.2279   -26.7306      NaN
  9600 111348.4              181.086             167.598    -29.4412   -26.9559      NaN
  9607 111429.6              181.425             167.936    -29.6426   -27.154      NaN
  9614 111510.8              181.763             168.273    -29.8018   -27.3224      NaN
  9621 111592.0              182.102             168.61    -29.9595   -27.4858      NaN
  9628 111673.2              182.439             168.947    -30.1071   -27.64      NaN
  9635 111754.4              182.777             169.285    -30.2672   -27.8173      NaN
  9642 111835.6              183.116             169.623    -30.449   -28.0168      NaN
  9649 111916.8              183.455             169.961    -30.7051   -28.2512      NaN
  9656 111998.0              183.795             170.298    -31.1229   -28.6701      NaN
  9663 112079.2              184.135             170.637    -31.9287   -29.491      NaN
  9670 112160.4              184.474             170.975    -33.8582   -31.4448      NaN
  9677 112241.6              184.814             171.312    -38.6876   -36.2687      NaN
  9684 112322.8              185.153             171.651    -47.0499   -44.6489      NaN
  9691 112404.0              185.492             171.989    -60.7371   -58.3369      NaN
  9698 112485.2              185.829             172.328    -73.5167   -71.1233      NaN
  9705 112566.4              186.165             172.666    -76.9123   -74.5434      NaN
  9712 112647.6              186.501             173.004    -62.7504   -60.3795      NaN
  9719 112728.8              186.838             173.343    -48.2339   -45.8506      NaN
  9726 112810.0              187.175             173.682    -37.9731   -35.5956      NaN
  9733 112891.2              187.513             174.021    -30.6351   -28.2804      NaN
  9740 112972.4              187.852             174.36    -25.2304   -22.8777      NaN
  9747 113053.6              188.191             174.7    -21.3021   -18.965      NaN
  9754 113134.8              188.53             175.039    -18.5861   -16.2731      NaN
  9761 113216.0              188.87             175.379    -17.034   -14.7416 0.951293
  9768 113297.2              189.208             175.719    -16.6167   -14.3337 0.951203
  9775 113378.4              189.547             176.06    -17.4913   -15.2202 0.951113
  9782 113459.6              189.885             176.4    -20.164   -17.9108 0.951023
  9789 113540.8              190.223             176.74    -29.6921   -27.4442 0.950933
  9796 113622.0              190.562             177.079    -47.6013   -45.3737 0.950842
  9803 113703.2              190.901             177.419    -48.5535   -46.3113 0.950751
  9810 113784.4              191.24             177.759    -70.9043   -68.6694 0.950660
  9817 113865.6              191.579             178.099    -98.1531   -95.9489 0.950568
  9824 113946.8              191.919             178.438    -86.4184   -84.2249 0.950476
  9831 114028.0              192.258             178.779    -70.0272   -67.8398 0.950383
  9838 114109.2              192.596             179.119    -59.2665   -57.0876 0.950290
  9845 114190.4              192.931             179.46    -51.908   -49.7205 0.950197
  9852 114271.6              193.268             179.801    -46.7887   -44.6038 0.950103
  9859 114352.8              193.605             180.143    -43.1487   -41.0014 0.950009
  9866 114434.0              193.943             180.484    -40.5818   -38.456 0.949914
  9873 114515.2              194.281             180.825    -38.7426   -36.6109 0.949819
  9880 114596.4              194.618             181.165    -37.4474   -35.3247 0.949724
  9887 114677.6              194.956             181.507    -36.5191   -34.4006 0.949628
  9894 114758.8              195.295             181.849    -35.8679   -33.7841 0.949532
  9901 114840.0              195.635             182.19    -35.4143   -33.3387 0.949435
  9908 114921.2              195.974             182.532    -35.1138   -33.0471 0.949337
  9915 115002.4              196.312             182.873    -34.9012   -32.8274 0.949240
  9922 115083.6              196.651             183.216    -34.7772   -32.6967 0.949142
  9929 115164.8              196.99             183.557    -34.6938   -32.6287 0.949043
  9936 115246.0              197.328             183.899    -34.6512   -32.6166 0.948944
  9943 115327.2              197.666             184.241    -34.644   -32.6147 0.948845
  9950 115408.4              198.006             184.583    -34.6298   -32.5948 0.948745
  9957 115489.6              198.345             184.925    -34.6406   -32.6043 0.948644
  9964 115570.8              198.684             185.267    -34.6811   -32.6882 0.948543
  9971 115652.0              199.023             185.61    -34.7411   -32.7538 0.948441
  9978 115733.2              199.363             185.953    -34.7983   -32.8323 0.948339
  9985 115814.4              199.701             186.296    -34.8685   -32.8879 0.948237
  9992 115895.6              200.038             186.638    -34.9187   -32.9737 0.948134
  9999 115976.8              200.376             186.981    -34.9775   -33.0436 0.948030
 10006 116058.0              200.713             187.324    -35.0243   -33.1373 0.947926
 10013 116139.2              201.049             187.667    -35.0878   -33.1908 0.947821
 10020 116220.4              201.388             188.009    -35.1428   -33.2067 0.947716
 10027 116301.6              201.726             188.352    -35.2082   -33.2481 0.947610
 10034 116382.8              202.064             188.695    -35.2626   -33.2744 0.947503
 10041 116464.0              202.401             189.038    -35.3134   -33.3704 0.947396
 10048 116545.2              202.741             189.381    -35.3616   -33.49 0.947288
 10055 116626.4              203.079             189.724    -35.4156   -33.5179 0.947180
 10062 116707.6              203.418             190.067    -35.471   -33.5505 0.947072
 10069 116788.8              203.756             190.41    -35.541   -33.6174 0.946962
 10076 116870.0              204.095             190.753    -35.6016   -33.6549 0.946852
 10083 116951.2              204.432             191.097    -35.6614   -33.7552 0.946741
 10090 117032.4              204.77             191.44    -35.7194   -33.8641 0.946630
 10097 117113.6              205.109             191.783    -35.7941   -33.9774 0.946518
 10104 117194.8              205.446             192.127    -35.8516   -34.1078 0.946405
 10111 117276.0              205.784             192.469    -35.922   -34.1901 0.946292
 10118 117357.2              206.123             192.812    -35.9839   -34.2305 0.946178
 10125 117438.4              206.463             193.156    -36.0331   -34.2704 0.946064
 10132 117519.6              206.802             193.499    -36.0998   -34.3463 0.945948
 10139 117600.8              207.142             193.842    -36.1301   -34.3961 0.945832
 10146 117682.0              207.48             194.185    -36.1926   -34.4733 0.945715
 10153 117763.2              207.819             194.529    -36.2733   -34.5142 0.945598
 10160 117844.4              208.158             194.873    -36.3263   -34.528 0.945479
 10167 117925.6              208.497             195.217    -36.4104   -34.6075 0.945360
 10174 118006.8              208.835             195.56    -36.4504   -34.6581 0.945240
 10181 118088.0              209.172             195.904    -36.5278   -34.7546 0.945120
 10188 118169.2              209.508             196.248    -36.6003   -34.8798 0.944998
 10195 118250.4              209.846             196.591    -36.6494   -34.9878 0.944876
 10202 118331.6              210.182             196.935    -36.7176   -35.0629 0.944753
 10209 118412.8              210.522             197.279    -36.7852   -35.1476 0.944629
 10216 118494.0              210.861             197.624    -36.863   -35.2829 0.944504
 10223 118575.2              211.199             197.968    -36.9303   -35.3956 0.944379
 10230 118656.4              211.538             198.312    -37.0158   -35.4297 0.944252
 10237 118737.6              211.879             198.655    -37.0783   -35.3941 0.944125
 10244 118818.8              212.218             198.999    -37.1548   -35.4364 0.943997
 10251 118900.0              212.557             199.344    -37.196   -35.5353 0.943868
 10258 118981.2              212.895             199.687    -37.2385   -35.5824 0.943738
 10265 119062.4              213.233             200.031    -37.2396   -35.5678 0.943607
 10272 119143.6              213.572             200.376    -37.2774   -35.6128 0.943475
 10279 119224.8              213.909             200.72    -37.3631   -35.6557 0.943342
 10286 119306.0              214.247             201.065    -37.459   -35.7838 0.943208
 10293 119387.2              214.585             201.409    -37.5585   -35.9037 0.943073
 10300 119468.4              214.922             201.754    -37.6541   -35.9886 0.942937
 10307 119549.6              215.259             202.098    -37.708   -36.0236 0.942800
 10314 119630.8              215.596             202.442    -37.7668   -36.0305 0.942662
 10321 119712.0              215.933             202.787    -37.8173   -36.184 0.942523
 10328 119793.2              216.271             203.13    -37.8721   -36.2373 0.942384
 10335 119874.4              216.609             203.475    -37.9524   -36.3765 0.942242
 10342 119955.6              216.95             203.819    -38.0298   -36.4134 0.942100
 10349 120036.8              217.289             204.163    -38.1197   -36.5542 0.941957
 10356 120118.0              217.628             204.508    -38.1942   -36.6597 0.941812
 10363 120199.2              217.969             204.852    -38.2874   -36.8306 0.941667
 10370 120280.4              218.309             205.197    -38.3632   -36.9441 0.941520
 10377 120361.6              218.647             205.542    -38.4433   -37.0564 0.941372
 10384 120442.8              218.985             205.886    -38.483   -37.2026 0.941223
 10391 120524.0              219.325             206.231    -38.5719   -37.3235 0.941072
 10398 120605.2              219.664             206.575    -38.627   -37.3254 0.940920
 10405 120686.4              220.001             206.92    -38.7159   -37.3706 0.940767
 10412 120767.6              220.338             207.264    -38.7846   -37.4136 0.940613
 10419 120848.8              220.674             207.609    -38.876   -37.4808 0.940457
 10426 120930.0              221.012             207.954    -38.9336   -37.4773 0.940300
 10433 121011.2              221.349             208.299    -39.0247   -37.5869 0.940141
 10440 121092.4              221.688             208.644    -39.1057   -37.6237 0.939982
 10447 121173.6              222.025             208.988    -39.1949   -37.7326 0.939820
 10454 121254.8              222.365             209.332    -39.2669   -37.7674 0.939658
 10461 121336.0              222.703             209.678    -39.3274   -37.7654 0.939493
 10468 121417.2              223.04             210.023    -39.4154   -37.8314 0.939328
 10475 121498.4              223.379             210.367    -39.4018   -37.8607 0.939161
 10482 121579.6              223.717             210.712    -39.4584   -37.9675 0.938992
 10489 121660.8              224.056             211.056    -39.5141   -38.0315 0.938822
 10496 121742.0              224.394             211.401    -39.5991   -38.183 0.938650
 10503 121823.2              224.734             211.746    -39.6863   -38.2794 0.938476
 10510 121904.4              225.074             212.09    -39.7535   -38.4293 0.938302
 10517 121985.6              225.412             212.435    -39.828   -38.529 0.938125
 10524 122066.8              225.752             212.779    -39.9403   -38.5917 0.937946
 10531 122148.0              226.09             213.125    -40.003   -38.5121 0.937766
 10538 122229.2              226.431             213.47    -40.0807   -38.5673 0.937584
 10545 122310.4              226.768             213.815    -40.2066   -38.6582 0.937399
 10552 122391.6              227.106             214.16    -40.3   -38.7555 0.937214
 10559 122472.8              227.445             214.505    -40.381   -38.9978 0.937026
 10566 122554.0              227.781             214.85    -40.4811   -39.2093 0.936836
 10573 122635.2              228.119             215.195    -40.5546   -39.3186 0.936644
 10580 122716.4              228.456             215.54    -40.6609   -39.4497 0.936451
 10587 122797.6              228.793             215.885    -40.7607   -39.6249 0.936255
 10594 122878.8              229.131             216.229    -40.851   -39.6634 0.936058
 10601 122960.0              229.469             216.575    -40.93   -39.7362 0.935857
 10608 123041.2              229.807             216.919    -41.0273   -39.8389 0.935656
 10615 123122.4              230.146             217.265    -41.1426   -39.8505 0.935451
 10622 123203.6              230.484             217.609    -41.1904   -39.9129 0.935245
 10629 123284.8              230.824             217.955    -41.258   -39.9753 0.935036
 10636 123366.0              231.163             218.299    -41.3531   -40.0689 0.934825
 10643 123447.2              231.504             218.644    -41.4313   -40.2035 0.934612
 10650 123528.4              231.842             218.989    -41.5455   -40.3442 0.934396
 10657 123609.6              232.18             219.334    -41.6356   -40.4419 0.934177
 10664 123690.8              232.516             219.679    -41.7311   -40.6254 0.933957
 10671 123772.0              232.854             220.024    -41.825   -40.7563 0.933733
 10678 123853.2              233.193             220.37    -41.9629   -40.8446 0.933506
 10685 123934.4              233.532             220.715    -42.0919   -40.9834 0.933277
 10692 124015.6              233.869             221.06    -42.2257   -41.1408 0.933046
 10699 124096.8              234.206             221.405    -42.3022   -41.2104 0.932811
 10706 124178.0              234.545             221.75    -42.339   -41.2247 0.932574
 10713 124259.2              234.882             222.094    -42.4426   -41.5088 0.932334
 10720 124340.4              235.222             222.44    -42.5477   -41.5731 0.932090
 10727 124421.6              235.56             222.785    -42.6032   -41.6417 0.931844
 10734 124502.8              235.899             223.13    -42.7425   -41.7926 0.931594
 10741 124584.0              236.238             223.475    -42.839   -41.9413 0.931342
 10748 124665.2              236.575             223.819    -42.9498   -42.0335 0.931086
 10755 124746.4              236.914             224.164    -43.0706   -42.162 0.930827
 10762 124827.6              237.25             224.51    -43.1917   -42.2761 0.930564
 10769 124908.8              237.589             224.854    -43.3164   -42.3854 0.930298
 10776 124990.0              237.927             225.199    -43.4309   -42.5646 0.930028
 10783 125071.2              238.264             225.544    -43.5568   -42.7381 0.929755
 10790 125152.4              238.603             225.889    -43.6591   -42.7916 0.929478
 10797 125233.6              238.942             226.234    -43.7539   -42.8245 0.929197
 10804 125314.8              239.281             226.578    -43.8327   -42.8636 0.928912
 10811 125396.0              239.622             226.923    -43.9597   -43.1039 0.928623
 10818 125477.2              239.961             227.268    -44.0925   -43.2873 0.928329
 10825 125558.4              240.3             227.614    -44.1935   -43.3862 0.928031
 10832 125639.6              240.639             227.957    -44.3696   -43.5984 0.927731
 10839 125720.8              240.978             228.303    -44.4479   -43.5809 0.927424
 10846 125802.0              241.316             228.648    -44.5439   -43.6085 0.927113
 10853 125883.2              241.653             228.993    -44.702   -43.6682 0.926797
 10860 125964.4              241.99             229.338    -44.878   -43.8459 0.926477
 10867 126045.6              242.329             229.683    -45.0428   -44.0314 0.926152
 10874 126126.8              242.667             230.027    -45.1565   -44.1457 0.925821
 10881 126208.0              243.005             230.372    -45.2933   -44.227 0.925486
 10888 126289.2              243.343             230.717    -45.3945   -44.37 0.925145
 10895 126370.4              243.681             231.062    -45.5632   -44.6639 0.924799
 10902 126451.6              244.019             231.407    -45.6603   -44.7788 0.924447
 10909 126532.8              244.358             231.752    -45.7588   -44.8305 0.924089
 10916 126614.0              244.698             232.097    -45.9303   -45.0047 0.923725
 10923 126695.2              245.036             232.442    -46.1087   -45.1681 0.923356
 10930 126776.4              245.374             232.787    -46.2731   -45.3777 0.922980
 10937 126857.6              245.713             233.132    -46.4544   -45.5176 0.922598
 10944 126938.8              246.051             233.476    -46.6208   -45.7077 0.922209
 10951 127020.0              246.388             233.821    -46.7701   -45.9008 0.921813
 10958 127101.2              246.728             234.166    -46.9416   -46.1901 0.921411
 10965 127182.4              247.066             234.51    -47.0951   -46.347 0.921002
 10972 127263.6              247.406             234.855    -47.2817   -46.5049 0.920584
 10979 127344.8              247.745             235.201    -47.4179   -46.6765 0.920158
 10986 127426.0              248.082             235.547    -47.5524   -46.8556 0.919724
 10993 127507.2              248.42             235.892    -47.7486   -47.0973 0.919284
 11000 127588.4              248.759             236.238    -47.9234   -47.2323 0.918834
 11007 127669.6              249.097             236.583    -48.1138   -47.3913 0.918375
 11014 127750.8              249.435             236.927    -48.3552   -47.5586 0.917910
 11021 127832.0              249.774             237.273    -48.5878   -47.6783 0.917433
 11028 127913.2              250.111             237.618    -48.8185   -47.9084 0.916948
 11035 127994.4              250.451             237.963    -49.0513   -48.0622 0.916454
 11042 128075.6              250.787             238.309    -49.2669   -48.4574 0.915947
 11049 128156.8              251.127             238.653    -49.5166   -48.704 0.915433
 11056 128238.0              251.462             238.999    -49.7438   -48.9186 0.914907
 11063 128319.2              251.801             239.344    -49.9098   -49.1908 0.914370
 11070 128400.4              252.139             239.689    -50.1059   -49.5117 0.913822
 11077 128481.6              252.477             240.034    -50.3012   -49.6251 0.913263
 11084 128562.8              252.815             240.379    -50.5046   -49.8709 0.912691
 11091 128644.0              253.155             240.724    -50.7821   -50.2802 0.912108
 11098 128725.2              253.491             241.069    -51.0562   -50.6896 0.911511
 11105 128806.4              253.83             241.415    -51.3108   -51.0684 0.910900
 11112 128887.6              254.168             241.76    -51.5997   -51.3692 0.910276
 11119 128968.8              254.505             242.104    -51.9001   -51.612 0.909639
 11126 129050.0              254.843             242.449    -52.1606   -51.7489 0.908987
 11133 129131.2              255.182             242.793    -52.4159   -51.8553 0.908320
 11140 129212.4              255.52             243.138    -52.7229   -52.1689 0.907637
 11147 129293.6              255.859             243.483    -52.9862   -52.4039 0.906937
 11154 129374.8              256.197             243.828    -53.266   -52.6373 0.906220
 11161 129456.0              256.536             244.174    -53.569   -52.9469 0.905485
 11168 129537.2              256.875             244.518    -53.8426   -53.2137 0.904735
 11175 129618.4              257.213             244.862    -54.1467   -53.6652 0.903965
 11182 129699.6              257.552             245.208    -54.5221   -54.214 0.903173
 11189 129780.8              257.891             245.553    -54.8883   -54.7077 0.902361
 11196 129862.0              258.23             245.898    -55.2603   -55.0013 0.901530
 11203 129943.2              258.57             246.242    -55.6656   -55.3902 0.900678
 11210 130024.4              258.91             246.587    -56.0403   -55.6274 0.899803
 11217 130105.6              259.248             246.932    -56.432   -56.0238 0.898903
 11224 130186.8              259.586             247.277    -56.8188   -56.6091 0.897979
 11231 130268.0              259.924             247.622    -57.251   -57.0808 0.897030
 11238 130349.2              260.263             247.967    -57.712   -57.4786 0.896055
 11245 130430.4              260.6             248.312    -58.1367   -58.0046 0.895051
 11252 130511.6              260.937             248.657    -58.6004   -58.3687 0.894020
 11259 130592.8              261.275             249.002    -59.0492   -58.7852 0.892960
 11266 130674.0              261.614             249.347    -59.5128   -59.3672 0.891868
 11273 130755.2              261.953             249.692    -60.0652   -59.8304 0.890744
 11280 130836.4              262.29             250.036    -60.6138   -60.3823 0.889590
 11287 130917.6              262.629             250.381    -61.15   -60.9775 0.888397
 11294 130998.8              262.965             250.725    -61.717   -61.6315 0.887172
 11301 131080.0              263.303             251.071    -62.3293   -62.389 0.885905
 11308 131161.2              263.641             251.415    -62.9493   -62.9907 0.884603
 11315 131242.4              263.98             251.76    -63.5833   -63.4975 0.883255
 11322 131323.6              264.318             252.104    -64.2011   -63.969 0.881871
 11329 131404.8              264.658             252.449    -64.8689   -64.6896 0.880437
 11336 131486.0              264.997             252.793    -65.6013   -65.4383 0.878958
 11343 131567.2              265.334             253.138    -66.3319   -66.1902 0.877429
 11350 131648.4              265.672             253.482    -67.1481   -66.9479 0.875848
 11357 131729.6              266.009             253.826    -67.9687   -67.7728 0.874218
 11364 131810.8              266.346             254.171    -68.7747   -68.6066 0.872527
 11371 131892.0              266.683             254.515    -69.6498   -69.3641 0.870781
 11378 131973.2              267.022             254.859    -70.5712   -70.3321 0.868973
 11385 132054.4              267.36             255.203    -71.5209   -71.5124 0.867100
 11392 132135.6              267.699             255.547    -72.5266   -72.5286 0.865157
 11399 132216.8              268.037             255.891    -73.6   -73.5628 0.863145
 11406 132298.0              268.375             256.235    -74.6697   -74.7235 0.861057
 11413 132379.2              268.713             256.578    -75.835   -75.9302 0.858893
 11420 132460.4              269.052             256.922    -77.0028   -77.0258 0.856640
 11427 132541.6              269.39             257.267    -78.2189   -78.369 0.854295
 11434 132622.8              269.729             257.61    -79.5575   -79.7994 0.851865
 11441 132704.0              270.069             257.954    -80.9993   -81.369 0.849331
 11448 132785.2              270.41             258.298    -82.5018   -82.7242 0.846693
 11455 132866.4              270.747             258.642    -84.0964   -84.203 0.843947
 11462 132947.6              271.085             258.986    -85.6742   -85.7759 0.841078
 11469 133028.8              271.422             259.33    -87.3693   -87.582 0.838081
 11476 133110.0              271.759             259.673    -89.2005   -89.5523 0.834958
 11483 133191.2              272.096             260.017    -91.141   -91.4807 0.831683
 11490 133272.4              272.434             260.36    -93.1703   -93.5332 0.828268
 11497 133353.6              272.771             260.703    -95.3091   -95.734 0.824686
 11504 133434.8              273.109             261.047    -97.6239   -98.1291 0.820907
 11511 133516.0              273.45             261.39   -100.052  -100.823 0.816959
 11518 133597.2              273.788             261.733   -102.58  -103.461 0.812802
 11525 133678.4              274.128             262.076   -105.303  -106.237 0.808430
 11532 133759.6              274.468             262.42   -108.2  -109.155 0.803802
 11539 133840.8              274.806             262.762   -111.29  -112.15 0.798936
 11546 133922.0              275.146             263.107   -114.574  -115.472 0.793757
 11553 134003.2              275.483             263.448   -118.098  -119.107 0.788301
 11560 134084.4              275.821             263.792   -121.857  -122.518 0.782481
 11567 134165.6              276.158             264.135   -125.835  -126.621 0.776286
 11574 134246.8              276.497             264.479   -130.099  -131.124 0.769669
 11581 134328.0              276.835             264.822   -134.637  -135.66 0.762595
 11588 134409.2              277.175             265.165   -139.51  -140.368 0.755014
 11595 134490.4              277.514             265.507   -144.684  -145.495 0.746858
 11602 134571.6              277.853             265.85   -150.237  -150.999 0.738046
 11609 134652.8              278.192             266.193   -156.199  -157.09 0.728497
 11616 134734.0              278.53             266.535   -162.576  -163.35 0.718141
 11623 134815.2              278.867             266.878   -169.43  -170.31 0.706788
 11630 134896.4              279.206             267.221   -176.685  -177.602 0.694330
 11637 134977.6              279.544             267.564   -184.37  -185.2 0.680551
 11644 135058.8              279.882             267.906   -192.353  -193.161 0.665270
 11651 135140.0              280.22             268.248   -201.06  -201.739 0.648164
 11658 135221.2              280.559             268.591   -210.601  -211.234 0.628806
 11665 135302.4              280.895             268.933   -221.057  -221.648 0.606799
 11672 135383.6              281.229             269.275   -232.276  -232.846 0.581470
 11679 135464.8              281.566             269.617   -244.273  -244.844 0.551852
 11686 135546.0              281.901             269.958   -257.155  -257.985 0.516887
 11693 135627.2              282.24             270.299   -270.975  -271.799 0.474559
 11700 135708.4              282.579             270.64   -285.846  -286.453 0.422127
 11707 135789.6              282.918             270.98   -301.721  -302.233 0.355188
 11714 135870.8              283.258             271.321   -318.687  -319.379 0.266126
 11721 135952.0              283.598             271.661   -336.75  -337.469 0.140362
 11728 136033.2              283.94             272.001   -355.798  -356.531      NaN
 11735 136114.4              284.279             272.341   -376.148  -376.981      NaN
 11742 136195.6              284.617             272.681   -397.696  -398.814      NaN
 11749 136276.8              284.953             273.021   -421.193  -422.305      NaN
 11756 136358.0              285.29             273.36   -446.806  -447.828      NaN
 11763 136439.2              285.628             273.699   -471.992  -472.961      NaN
 11770 136520.4              285.966             274.038   -494.87  -495.69      NaN
 11777 136601.6              286.306             274.377   -517.813  -518.541      NaN
 11784 136682.8              286.645             274.715   -540.298  -540.943      NaN
 11791 136764.0              286.985             275.053   -562.78  -563.439      NaN
 11798 136845.2              287.325             275.392   -584.71  -585.28      NaN
 11805 136926.4              287.665             275.73   -605.581  -606.274      NaN
 11812 137007.6              288.005             276.067   -625.527  -626.582      NaN
 11819 137088.8              288.344             276.405   -646.257  -647.351      NaN
 11826 137170.0              288.681             276.744   -664.989  -665.997      NaN
 11833 137251.2              289.02             277.082   -679.472  -680.445      NaN
 11840 137332.4              289.357             277.42   -689.827  -690.731      NaN
 11847 137413.6              289.695             277.758   -698.606  -699.381      NaN
 11854 137494.8              290.034             278.097   -700.888  -701.853      NaN
 11861 137576.0              290.372             278.435   -700.896  -702.174      NaN
 11868 137657.2              290.708             278.775   -686.73  -687.774      NaN
 11875 137738.4              291.044             279.113   -632.952  -633.964      NaN
 11882 137819.6              291.378             279.453   -564.861  -565.983      NaN
 11889 137900.8              291.714             279.796   -451.159  -452.18      NaN
 11896 137982.0              292.05             280.138   -370.175  -371.183      NaN
 11903 138063.2              292.388             280.482   -307.659  -308.689      NaN
 11910 138144.4              292.726             280.825   -259.025  -260.12      NaN
 11917 138225.6              293.067             281.171   -221.136  -222.195      NaN
 11924 138306.8              293.407             281.515   -191.668  -192.802      NaN
 11931 138388.0              293.748             281.86   -168.778  -169.944      NaN
 11938 138469.2              294.088             282.205   -150.963  -152.015      NaN
 11945 138550.4              294.428             282.55   -137.116  -138.298      NaN
 11952 138631.6              294.766             282.896   -126.386  -127.848      NaN
 11959 138712.8              295.102             283.242   -118.062  -119.519      NaN
 11966 138794.0              295.437             283.587   -111.617  -113.087      NaN
 11973 138875.2              295.774             283.932   -106.64  -108.002      NaN
 11980 138956.4              296.112             284.277   -102.752  -104.189      NaN
 11987 139037.6              296.451             284.622    -99.7348  -101.05      NaN
 11994 139118.8              296.79             284.966    -97.6905   -99.1235      NaN
 12001 139200.0              297.131             285.31    -95.741   -97.0923      NaN
 12008 139281.2              297.472             285.655    -94.229   -95.4201      NaN
 12015 139362.4              297.811             285.999    -93.0326   -94.3621      NaN
 12022 139443.6              298.151             286.344    -92.0816   -93.4339      NaN
 12029 139524.8              298.49             286.689    -91.3542   -92.7197      NaN
 12036 139606.0              298.83             287.033    -90.754   -92.1247      NaN
 12043 139687.2              299.168             287.379    -90.3016   -91.6331      NaN
 12050 139768.4              299.317             287.721    -89.9208   -91.3481      NaN
 12057 139849.6              299.313             288.056    -89.5761   -91.081      NaN
 12064 139930.8              299.293             288.382    -89.1521   -90.6282      NaN
 12071 140012.0              299.265             288.696    -88.6254   -90.036      NaN
 12078 140093.2              299.239             289.001    -87.8562   -89.217      NaN
 12085 140174.4              299.216             289.294    -86.8477   -88.1346      NaN
 12092 140255.6              299.201             289.578    -85.5808   -86.7866      NaN
 12099 140336.8              299.191             289.852    -84.0753   -85.6257      NaN
 12100 140348.4              299.19             289.89    -83.8368   -85.3987      NaN