File: z_unorganized_archive/i_data_processed/0.25Kmin/3.2wt%_climb_proc.txt
 Index  Time(s)  Furnace Temperature(K)  Sample Temperature(K)  HeatFlow(mW)  Q_Corrected       Fc
  8501  98600.0              127.957             117.518    -18.1609   -15.6829      NaN
  8508  98681.2              128.295             117.779    -18.4033   -15.8948      NaN
  8515  98762.4              128.634             118.043    -18.6037   -16.0847      NaN
  8522  98843.6              128.971             118.308    -18.8346   -16.3      NaN
  8529  98924.8              129.311             118.575    -19.0625   -16.514      NaN
  8536  99006.0              129.65             118.843    -19.2915   -16.7354      NaN
  8543  99087.2              129.988             119.113    -19.5227   -16.9433      NaN
  8550  99168.4              130.326             119.385    -19.7526   -17.1611      NaN
  8557  99249.6              130.664             119.659    -20.0139   -17.4077      NaN
  8564  99330.8              131.002             119.933    -20.2564   -17.6436      NaN
  8571  99412.0              131.34             120.209    -20.5314   -17.9105      NaN
  8578  99493.2              131.679             120.488    -20.8168   -18.1817      NaN
  8585  99574.4              132.018             120.768    -21.1117   -18.4582      NaN
  8592  99655.6              132.358             121.049    -21.4254   -18.761      NaN
  8599  99736.8              132.697             121.331    -21.7194   -19.0389      NaN
  8606  99818.0              133.035             121.615    -22.0535   -19.3807      NaN
  8613  99899.2              133.374             121.9    -22.3712   -19.6813      NaN
  8620  99980.4              133.712             122.186    -22.7144   -20.0158      NaN
  8627 100061.6              134.05             122.473    -23.0186   -20.3108      NaN
  8634 100142.8              134.388             122.762    -23.2768   -20.5445      NaN
  8641 100224.0              134.727             123.052    -23.5015   -20.7775      NaN
  8648 100305.2              135.066             123.343    -23.6414   -20.912      NaN
  8655 100386.4              135.405             123.635    -23.7338   -20.9892      NaN
  8662 100467.6              135.743             123.93    -23.7397   -20.9814      NaN
  8669 100548.8              136.082             124.224    -23.7291   -20.9765      NaN
  8676 100630.0              136.421             124.519    -23.7088   -20.9414      NaN
  8683 100711.2              136.758             124.816    -23.6927   -20.9134      NaN
  8690 100792.4              137.097             125.114    -23.6996   -20.9174      NaN
  8697 100873.6              137.436             125.412    -23.7202   -20.9245      NaN
  8704 100954.8              137.774             125.711    -23.7782   -20.987      NaN
  8711 101036.0              138.112             126.011    -23.8343   -21.0369      NaN
  8718 101117.2              138.449             126.313    -23.9131   -21.101      NaN
  8725 101198.4              138.787             126.615    -23.9892   -21.1779      NaN
  8732 101279.6              139.126             126.918    -24.0846   -21.2683      NaN
  8739 101360.8              139.465             127.221    -24.1514   -21.3346      NaN
  8746 101442.0              139.804             127.526    -24.2511   -21.428      NaN
  8753 101523.2              140.143             127.831    -24.3296   -21.4976      NaN
  8760 101604.4              140.481             128.138    -24.4164   -21.5825      NaN
  8767 101685.6              140.82             128.445    -24.5053   -21.6616      NaN
  8774 101766.8              141.157             128.752    -24.5904   -21.7526      NaN
  8781 101848.0              141.496             129.06    -24.6902   -21.8591      NaN
  8788 101929.2              141.834             129.369    -24.7701   -21.9197      NaN
  8795 102010.4              142.173             129.68    -24.8595   -21.9967      NaN
  8802 102091.6              142.512             129.991    -24.9321   -22.0752      NaN
  8809 102172.8              142.85             130.302    -25.0406   -22.1915      NaN
  8816 102254.0              143.189             130.613    -25.1053   -22.2591      NaN
  8823 102335.2              143.528             130.926    -25.1975   -22.3344      NaN
  8830 102416.4              143.866             131.239    -25.2988   -22.4286      NaN
  8837 102497.6              144.205             131.553    -25.3771   -22.5152      NaN
  8844 102578.8              144.543             131.867    -25.4648   -22.592      NaN
  8851 102660.0              144.882             132.182    -25.5376   -22.6672      NaN
  8858 102741.2              145.222             132.497    -25.6255   -22.7591      NaN
  8865 102822.4              145.559             132.814    -25.6939   -22.8196      NaN
  8872 102903.6              145.896             133.131    -25.7702   -22.8913      NaN
  8879 102984.8              146.234             133.447    -25.8698   -22.9877      NaN
  8886 103066.0              146.573             133.765    -25.9359   -23.0685      NaN
  8893 103147.2              146.911             134.083    -26.0258   -23.154      NaN
  8900 103228.4              147.249             134.402    -26.092   -23.2077      NaN
  8907 103309.6              147.588             134.721    -26.1696   -23.2797      NaN
  8914 103390.8              147.926             135.04    -26.2388   -23.3598      NaN
  8921 103472.0              148.264             135.36    -26.3127   -23.4336      NaN
  8928 103553.2              148.603             135.682    -26.4112   -23.5375      NaN
  8935 103634.4              148.941             136.002    -26.4824   -23.609      NaN
  8942 103715.6              149.28             136.323    -26.5535   -23.6716      NaN
  8949 103796.8              149.618             136.645    -26.6309   -23.7477      NaN
  8956 103878.0              149.956             136.967    -26.6896   -23.8181      NaN
  8963 103959.2              150.295             137.289    -26.7613   -23.8856      NaN
  8970 104040.4              150.634             137.612    -26.8407   -23.9616      NaN
  8977 104121.6              150.971             137.936    -26.9107   -24.0232      NaN
  8984 104202.8              151.31             138.258    -26.9854   -24.1056      NaN
  8991 104284.0              151.65             138.583    -27.0424   -24.1529      NaN
  8998 104365.2              151.987             138.907    -27.1195   -24.2599      NaN
  9005 104446.4              152.325             139.232    -27.1864   -24.3163      NaN
  9012 104527.6              152.663             139.557    -27.2564   -24.3811      NaN
  9019 104608.8              153.001             139.882    -27.326   -24.4511      NaN
  9026 104690.0              153.34             140.208    -27.3933   -24.5184      NaN
  9033 104771.2              153.679             140.534    -27.4739   -24.6091      NaN
  9040 104852.4              154.018             140.86    -27.5185   -24.6567      NaN
  9047 104933.6              154.356             141.187    -27.5986   -24.7337      NaN
  9054 105014.8              154.694             141.514    -27.6421   -24.7709      NaN
  9061 105096.0              155.032             141.842    -27.7213   -24.8576      NaN
  9068 105177.2              155.37             142.169    -27.7912   -24.9299      NaN
  9075 105258.4              155.709             142.497    -27.8464   -24.9922      NaN
  9082 105339.6              156.048             142.826    -27.9263   -25.0742      NaN
  9089 105420.8              156.386             143.154    -27.9757   -25.1154      NaN
  9096 105502.0              156.724             143.482    -28.0487   -25.1844      NaN
  9103 105583.2              157.062             143.811    -28.1062   -25.2525      NaN
  9110 105664.4              157.402             144.14    -28.1697   -25.3173      NaN
  9117 105745.6              157.74             144.47    -28.2407   -25.3914      NaN
  9124 105826.8              158.078             144.8    -28.2937   -25.4377      NaN
  9131 105908.0              158.416             145.13    -28.3528   -25.5107      NaN
  9138 105989.2              158.755             145.46    -28.413   -25.5656      NaN
  9145 106070.4              159.094             145.79    -28.4554   -25.6144      NaN
  9152 106151.6              159.431             146.122    -28.5027   -25.6585      NaN
  9159 106232.8              159.77             146.451    -28.5606   -25.7152      NaN
  9166 106314.0              160.109             146.783    -28.6135   -25.775      NaN
  9173 106395.2              160.447             147.114    -28.6438   -25.8081      NaN
  9180 106476.4              160.786             147.445    -28.6689   -25.8447      NaN
  9187 106557.6              161.124             147.777    -28.6934   -25.8613      NaN
  9194 106638.8              161.462             148.11    -28.7082   -25.8691      NaN
  9201 106720.0              161.8             148.442    -28.7115   -25.8813      NaN
  9208 106801.2              162.139             148.773    -28.706   -25.8835      NaN
  9215 106882.4              162.477             149.106    -28.675   -25.8549      NaN
  9222 106963.6              162.817             149.438    -28.6225   -25.8053      NaN
  9229 107044.8              163.156             149.771    -28.539   -25.735      NaN
  9236 107126.0              163.493             150.103    -28.4377   -25.6393      NaN
  9243 107207.2              163.831             150.436    -28.2851   -25.4884      NaN
  9250 107288.4              164.17             150.769    -28.1048   -25.3092      NaN
  9257 107369.6              164.507             151.103    -27.8783   -25.0828      NaN
  9264 107450.8              164.847             151.437    -27.5751   -24.7848      NaN
  9271 107532.0              165.184             151.77    -27.2327   -24.4311      NaN
  9278 107613.2              165.522             152.105    -26.7896   -24.0034      NaN
  9285 107694.4              165.861             152.438    -26.2836   -23.4963      NaN
  9292 107775.6              166.2             152.772    -25.6648   -22.8934      NaN
  9299 107856.8              166.538             153.107    -24.9417   -22.1808      NaN
  9306 107938.0              166.876             153.44    -24.0823   -21.3178      NaN
  9313 108019.2              167.214             153.776    -23.0452   -20.2759      NaN
  9320 108100.4              167.553             154.111    -21.8317   -19.0753      NaN
  9327 108181.6              167.892             154.445    -20.3857   -17.6353      NaN
  9334 108262.8              168.229             154.78    -18.6928   -15.939      NaN
  9341 108344.0              168.568             155.116    -16.7136   -13.9558      NaN
  9348 108425.2              168.906             155.451    -14.449   -11.7098      NaN
  9355 108506.4              169.244             155.786    -11.8632    -9.139282      NaN
  9362 108587.6              169.583             156.122     -8.999987    -6.276959      NaN
  9369 108668.8              169.922             156.457     -5.865361    -3.147028      NaN
  9376 108750.0              170.26             156.793     -2.576098     0.131122      NaN
  9383 108831.2              170.598             157.129      0.808319     3.513503      NaN
  9390 108912.4              170.936             157.465      4.073515     6.778095      NaN
  9397 108993.6              171.273             157.802      7.058360     9.752161      NaN
  9404 109074.8              171.611             158.138      9.476126    12.1689      NaN
  9411 109156.0              171.95             158.474     11.03    13.7203      NaN
  9418 109237.2              172.291             158.811     11.4708    14.1512      NaN
  9425 109318.4              172.63             159.147     10.5464    13.2198      NaN
  9432 109399.6              172.967             159.484      8.255905    10.922      NaN
  9439 109480.8              173.304             159.82      4.735099     7.398569      NaN
  9446 109562.0              173.643             160.158      0.394854     3.061837      NaN
  9453 109643.2              173.979             160.495     -4.316138    -1.659014      NaN
  9460 109724.4              174.318             160.831     -8.918974    -6.282213      NaN
  9467 109805.6              174.655             161.167    -13.0589   -10.434      NaN
  9474 109886.8              174.994             161.504    -16.5267   -13.9034      NaN
  9481 109968.0              175.334             161.84    -19.2591   -16.6266      NaN
  9488 110049.2              175.672             162.177    -21.3538   -18.7378      NaN
  9495 110130.4              176.011             162.513    -22.9223   -20.3105      NaN
  9502 110211.6              176.349             162.85    -24.0921   -21.494      NaN
  9509 110292.8              176.686             163.187    -24.9797   -22.3954      NaN
  9516 110374.0              177.024             163.524    -25.6552   -23.0707      NaN
  9523 110455.2              177.363             163.861    -26.1993   -23.6303      NaN
  9530 110536.4              177.701             164.198    -26.6436   -24.0758      NaN
  9537 110617.6              178.04             164.535    -27.0277   -24.4674      NaN
  9544 110698.8              178.379             164.872    -27.3691   -24.8188      NaN
  9551 110780.0              178.719             165.209    -27.6739   -25.1218      NaN
  9558 110861.2              179.059             165.546    -27.9446   -25.4099      NaN
  9565 110942.4              179.397             165.884    -28.2012   -25.6738      NaN
  9572 111023.6              179.736             166.222    -28.4123   -25.9016      NaN
  9579 111104.8              180.072             166.56    -28.624   -26.1146      NaN
  9586 111186.0              180.407             166.897    -28.8027   -26.3055      NaN
  9593 111267.2              180.744             167.235    -28.9819   -26.4847      NaN
  9600 111348.4              181.082             167.572    -29.1338   -26.6485      NaN
  9607 111429.6              181.421             167.91    -29.2927   -26.8041      NaN
  9614 111510.8              181.76             168.248    -29.4248   -26.9453      NaN
  9621 111592.0              182.098             168.585    -29.5732   -27.0995      NaN
  9628 111673.2              182.437             168.923    -29.7269   -27.2598      NaN
  9635 111754.4              182.777             169.261    -29.9274   -27.4775      NaN
  9642 111835.6              183.117             169.599    -30.1645   -27.7323      NaN
  9649 111916.8              183.455             169.938    -30.5473   -28.0934      NaN
  9656 111998.0              183.794             170.277    -31.1944   -28.7416      NaN
  9663 112079.2              184.133             170.615    -32.602   -30.1643      NaN
  9670 112160.4              184.47             170.954    -36.0662   -33.6528      NaN
  9677 112241.6              184.809             171.292    -44.1366   -41.7176      NaN
  9684 112322.8              185.146             171.631    -55.0847   -52.6837      NaN
  9691 112404.0              185.483             171.969    -70.7151   -68.3149      NaN
  9698 112485.2              185.822             172.308    -89.1482   -86.7548      NaN
  9705 112566.4              186.16             172.647   -102.053   -99.6846      NaN
  9712 112647.6              186.499             172.985    -94.6804   -92.3095      NaN
  9719 112728.8              186.839             173.323    -63.7061   -61.3228      NaN
  9726 112810.0              187.179             173.663    -34.8241   -32.4467      NaN
  9733 112891.2              187.519             174.004    -13.2272   -10.8725      NaN
  9740 112972.4              187.858             174.345      0.758153     3.110822      NaN
  9747 113053.6              188.197             174.685      7.849944    10.1871      NaN
  9754 113134.8              188.536             175.026      9.261646    11.5746      NaN
  9761 113216.0              188.874             175.368      6.508818     8.801247 0.902591
  9768 113297.2              189.213             175.709      1.159283     3.442283 0.902412
  9775 113378.4              189.551             176.051     -5.612535    -3.341369 0.902231
  9782 113459.6              189.887             176.392    -14.0343   -11.7811 0.902051
  9789 113540.8              190.223             176.733    -29.4164   -27.1686 0.901869
  9796 113622.0              190.559             177.073    -61.9198   -59.6923 0.901687
  9803 113703.2              190.896             177.413    -84.251   -82.0088 0.901505
  9810 113784.4              191.232             177.753    -87.7981   -85.5632 0.901322
  9817 113865.6              191.569             178.093   -117.823  -115.619 0.901139
  9824 113946.8              191.907             178.432   -150.122  -147.928 0.900955
  9831 114028.0              192.246             178.77   -157.826  -155.639 0.900771
  9838 114109.2              192.586             179.11   -122.476  -120.297 0.900586
  9845 114190.4              192.925             179.45    -96.236   -94.0486 0.900399
  9852 114271.6              193.264             179.791    -78.4827   -76.2978 0.900212
  9859 114352.8              193.603             180.132    -66.1314   -63.9841 0.900024
  9866 114434.0              193.943             180.473    -57.3855   -55.2597 0.899834
  9873 114515.2              194.282             180.815    -51.1602   -49.0286 0.899644
  9880 114596.4              194.621             181.156    -46.7065   -44.5839 0.899453
  9887 114677.6              194.96             181.498    -43.5346   -41.4161 0.899261
  9894 114758.8              195.297             181.84    -41.2656   -39.1818 0.899068
  9901 114840.0              195.635             182.183    -39.6491   -37.5736 0.898874
  9908 114921.2              195.973             182.524    -38.5064   -36.4397 0.898679
  9915 115002.4              196.313             182.866    -37.6819   -35.608 0.898484
  9922 115083.6              196.652             183.208    -37.1055   -35.0249 0.898288
  9929 115164.8              196.992             183.551    -36.7202   -34.6551 0.898090
  9936 115246.0              197.331             183.893    -36.4733   -34.4387 0.897892
  9943 115327.2              197.671             184.235    -36.3035   -34.2742 0.897693
  9950 115408.4              198.009             184.578    -36.2154   -34.1805 0.897492
  9957 115489.6              198.345             184.921    -36.1427   -34.1064 0.897291
  9964 115570.8              198.682             185.264    -36.1273   -34.1343 0.897088
  9971 115652.0              199.018             185.607    -36.1311   -34.1438 0.896885
  9978 115733.2              199.356             185.95    -36.1479   -34.182 0.896681
  9985 115814.4              199.692             186.292    -36.1835   -34.2029 0.896475
  9992 115895.6              200.03             186.635    -36.2144   -34.2694 0.896269
  9999 115976.8              200.37             186.977    -36.2458   -34.3119 0.896062
 10006 116058.0              200.709             187.32    -36.2935   -34.4066 0.895854
 10013 116139.2              201.048             187.663    -36.3652   -34.4682 0.895644
 10020 116220.4              201.388             188.006    -36.4416   -34.5055 0.895433
 10027 116301.6              201.726             188.349    -36.4978   -34.5377 0.895221
 10034 116382.8              202.065             188.692    -36.5723   -34.5841 0.895009
 10041 116464.0              202.403             189.035    -36.6526   -34.7096 0.894794
 10048 116545.2              202.743             189.379    -36.7139   -34.8423 0.894579
 10055 116626.4              203.08             189.721    -36.8075   -34.9098 0.894363
 10062 116707.6              203.419             190.065    -36.8818   -34.9613 0.894144
 10069 116788.8              203.757             190.408    -36.9582   -35.0347 0.893926
 10076 116870.0              204.094             190.751    -37.0364   -35.0897 0.893706
 10083 116951.2              204.43             191.095    -37.1217   -35.2155 0.893484
 10090 117032.4              204.768             191.438    -37.1654   -35.31 0.893261
 10097 117113.6              205.106             191.782    -37.1965   -35.3798 0.893037
 10104 117194.8              205.444             192.125    -37.2519   -35.5081 0.892812
 10111 117276.0              205.783             192.467    -37.2983   -35.5663 0.892585
 10118 117357.2              206.122             192.811    -37.378   -35.6246 0.892357
 10125 117438.4              206.462             193.155    -37.4128   -35.6502 0.892128
 10132 117519.6              206.801             193.498    -37.494   -35.7404 0.891897
 10139 117600.8              207.141             193.841    -37.566   -35.832 0.891665
 10146 117682.0              207.479             194.185    -37.6118   -35.8925 0.891431
 10153 117763.2              207.82             194.529    -37.6991   -35.94 0.891196
 10160 117844.4              208.159             194.873    -37.7695   -35.9712 0.890959
 10167 117925.6              208.498             195.216    -37.8723   -36.0694 0.890721
 10174 118006.8              208.837             195.561    -37.9746   -36.1822 0.890481
 10181 118088.0              209.176             195.905    -38.057   -36.2838 0.890239
 10188 118169.2              209.513             196.248    -38.1491   -36.4286 0.889996
 10195 118250.4              209.851             196.593    -38.2197   -36.5581 0.889751
 10202 118331.6              210.187             196.938    -38.3156   -36.6609 0.889505
 10209 118412.8              210.524             197.281    -38.3909   -36.7533 0.889257
 10216 118494.0              210.86             197.626    -38.4891   -36.9089 0.889007
 10223 118575.2              211.197             197.97    -38.5819   -37.0472 0.888756
 10230 118656.4              211.536             198.314    -38.6616   -37.0755 0.888503
 10237 118737.6              211.874             198.658    -38.7502   -37.066 0.888248
 10244 118818.8              212.214             199.002    -38.8341   -37.1157 0.887992
 10251 118900.0              212.553             199.346    -38.9007   -37.24 0.887733
 10258 118981.2              212.892             199.691    -38.9752   -37.3192 0.887473
 10265 119062.4              213.231             200.034    -39.057   -37.3852 0.887212
 10272 119143.6              213.569             200.379    -39.1227   -37.4582 0.886948
 10279 119224.8              213.908             200.723    -39.2342   -37.5267 0.886681
 10286 119306.0              214.248             201.068    -39.3179   -37.6427 0.886414
 10293 119387.2              214.586             201.412    -39.412   -37.7572 0.886144
 10300 119468.4              214.925             201.757    -39.4927   -37.8272 0.885872
 10307 119549.6              215.262             202.101    -39.5868   -37.9023 0.885598
 10314 119630.8              215.6             202.445    -39.6588   -37.9225 0.885322
 10321 119712.0              215.938             202.79    -39.7359   -38.1026 0.885044
 10328 119793.2              216.276             203.134    -39.8135   -38.1787 0.884764
 10335 119874.4              216.613             203.479    -39.9093   -38.3334 0.884482
 10342 119955.6              216.951             203.825    -39.9783   -38.3619 0.884196
 10349 120036.8              217.289             204.168    -40.0687   -38.5032 0.883910
 10356 120118.0              217.627             204.513    -40.1248   -38.5903 0.883621
 10363 120199.2              217.966             204.857    -40.2389   -38.7821 0.883329
 10370 120280.4              218.303             205.201    -40.3302   -38.9111 0.883036
 10377 120361.6              218.642             205.546    -40.4414   -39.0544 0.882740
 10384 120442.8              218.981             205.891    -40.522   -39.2416 0.882440
 10391 120524.0              219.321             206.235    -40.617   -39.3686 0.882140
 10398 120605.2              219.658             206.58    -40.7243   -39.4227 0.881836
 10405 120686.4              219.997             206.924    -40.8603   -39.515 0.881530
 10412 120767.6              220.335             207.269    -40.9649   -39.5939 0.881221
 10419 120848.8              220.673             207.614    -41.0891   -39.6939 0.880910
 10426 120930.0              221.011             207.959    -41.1971   -39.7408 0.880595
 10433 121011.2              221.35             208.303    -41.3022   -39.8645 0.880279
 10440 121092.4              221.689             208.647    -41.3815   -39.8994 0.879959
 10447 121173.6              222.027             208.992    -41.4764   -40.0141 0.879637
 10454 121254.8              222.367             209.336    -41.5488   -40.0492 0.879312
 10461 121336.0              222.707             209.681    -41.6515   -40.0895 0.878983
 10468 121417.2              223.047             210.026    -41.7608   -40.1768 0.878652
 10475 121498.4              223.386             210.371    -41.8577   -40.3165 0.878317
 10482 121579.6              223.724             210.716    -41.9318   -40.4409 0.877980
 10489 121660.8              224.063             211.062    -42.0544   -40.5718 0.877638
 10496 121742.0              224.399             211.406    -42.1536   -40.7376 0.877295
 10503 121823.2              224.737             211.751    -42.2751   -40.8682 0.876948
 10510 121904.4              225.074             212.096    -42.3592   -41.035 0.876598
 10517 121985.6              225.41             212.441    -42.4693   -41.1702 0.876243
 10524 122066.8              225.748             212.786    -42.5665   -41.2179 0.875886
 10531 122148.0              226.086             213.131    -42.6955   -41.2045 0.875525
 10538 122229.2              226.425             213.476    -42.7799   -41.2665 0.875161
 10545 122310.4              226.764             213.821    -42.8991   -41.3507 0.874793
 10552 122391.6              227.103             214.165    -43.0274   -41.4829 0.874422
 10559 122472.8              227.44             214.51    -43.1255   -41.7422 0.874045
 10566 122554.0              227.779             214.855    -43.2317   -41.9598 0.873666
 10573 122635.2              228.118             215.2    -43.3444   -42.1084 0.873283
 10580 122716.4              228.457             215.545    -43.4779   -42.2668 0.872896
 10587 122797.6              228.796             215.89    -43.6156   -42.4798 0.872505
 10594 122878.8              229.136             216.235    -43.7023   -42.5147 0.872109
 10601 122960.0              229.475             216.58    -43.8814   -42.6876 0.871709
 10608 123041.2              229.813             216.925    -44.0908   -42.9024 0.871305
 10615 123122.4              230.151             217.271    -44.2424   -42.9503 0.870895
 10622 123203.6              230.489             217.616    -44.4073   -43.1298 0.870482
 10629 123284.8              230.825             217.961    -44.5577   -43.275 0.870064
 10636 123366.0              231.162             218.306    -44.6992   -43.415 0.869642
 10643 123447.2              231.5             218.651    -44.7865   -43.5588 0.869215
 10650 123528.4              231.837             218.996    -44.867   -43.6658 0.868783
 10657 123609.6              232.176             219.342    -45.02   -43.8264 0.868345
 10664 123690.8              232.515             219.686    -45.1942   -44.0884 0.867904
 10671 123772.0              232.854             220.031    -45.3512   -44.2825 0.867456
 10678 123853.2              233.192             220.377    -45.4989   -44.3806 0.867004
 10685 123934.4              233.53             220.721    -45.6453   -44.5369 0.866547
 10692 124015.6              233.87             221.066    -45.7664   -44.6814 0.866083
 10699 124096.8              234.208             221.411    -45.931   -44.8392 0.865614
 10706 124178.0              234.547             221.757    -46.0825   -44.9681 0.865139
 10713 124259.2              234.886             222.101    -46.2255   -45.2918 0.864659
 10720 124340.4              235.224             222.446    -46.3363   -45.3617 0.864172
 10727 124421.6              235.561             222.792    -46.5279   -45.5665 0.863677
 10734 124502.8              235.9             223.138    -46.7147   -45.7648 0.863178
 10741 124584.0              236.238             223.483    -46.8966   -45.999 0.862673
 10748 124665.2              236.575             223.827    -47.056   -46.1398 0.862161
 10755 124746.4              236.914             224.173    -47.2085   -46.2999 0.861642
 10762 124827.6              237.252             224.517    -47.3993   -46.4837 0.861117
 10769 124908.8              237.591             224.862    -47.5455   -46.6145 0.860584
 10776 124990.0              237.929             225.207    -47.6747   -46.8083 0.860044
 10783 125071.2              238.267             225.551    -47.8309   -47.0122 0.859498
 10790 125152.4              238.604             225.897    -48.0237   -47.1562 0.858943
 10797 125233.6              238.943             226.242    -48.1947   -47.2654 0.858380
 10804 125314.8              239.283             226.587    -48.4171   -47.448 0.857809
 10811 125396.0              239.619             226.932    -48.6032   -47.7474 0.857231
 10818 125477.2              239.959             227.277    -48.8087   -48.0034 0.856643
 10825 125558.4              240.297             227.621    -48.9852   -48.1779 0.856050
 10832 125639.6              240.635             227.966    -49.1602   -48.389 0.855445
 10839 125720.8              240.972             228.311    -49.3047   -48.4376 0.854833
 10846 125802.0              241.312             228.656    -49.5192   -48.5838 0.854211
 10853 125883.2              241.651             229.001    -49.6968   -48.663 0.853580
 10860 125964.4              241.989             229.346    -49.9274   -48.8953 0.852938
 10867 126045.6              242.328             229.691    -50.1463   -49.135 0.852287
 10874 126126.8              242.668             230.036    -50.3162   -49.3054 0.851627
 10881 126208.0              243.007             230.38    -50.5435   -49.4772 0.850956
 10888 126289.2              243.347             230.725    -50.7586   -49.7341 0.850274
 10895 126370.4              243.685             231.07    -50.9762   -50.0768 0.849581
 10902 126451.6              244.024             231.416    -51.223   -50.3416 0.848875
 10909 126532.8              244.362             231.761    -51.4833   -50.5549 0.848159
 10916 126614.0              244.701             232.106    -51.7503   -50.8247 0.847432
 10923 126695.2              245.039             232.452    -52.0249   -51.0842 0.846690
 10930 126776.4              245.375             232.797    -52.2713   -51.376 0.845938
 10937 126857.6              245.713             233.142    -52.5566   -51.6197 0.845172
 10944 126938.8              246.049             233.488    -52.8509   -51.9377 0.844392
 10951 127020.0              246.387             233.832    -53.1225   -52.2531 0.843602
 10958 127101.2              246.725             234.177    -53.377   -52.6256 0.842796
 10965 127182.4              247.064             234.521    -53.6589   -52.9108 0.841976
 10972 127263.6              247.402             234.866    -53.9776   -53.2008 0.841141
 10979 127344.8              247.742             235.211    -54.2365   -53.495 0.840292
 10986 127426.0              248.079             235.556    -54.5386   -53.8419 0.839425
 10993 127507.2              248.418             235.902    -54.84   -54.1887 0.838540
 11000 127588.4              248.756             236.248    -55.1427   -54.4516 0.837640
 11007 127669.6              249.095             236.593    -55.4101   -54.6876 0.836725
 11014 127750.8              249.434             236.938    -55.7093   -54.9127 0.835790
 11021 127832.0              249.772             237.283    -56.0173   -55.1079 0.834839
 11028 127913.2              250.11             237.627    -56.39   -55.4799 0.833870
 11035 127994.4              250.448             237.972    -56.7618   -55.7727 0.832880
 11042 128075.6              250.785             238.318    -57.1315   -56.322 0.831868
 11049 128156.8              251.123             238.663    -57.5069   -56.6943 0.830838
 11056 128238.0              251.461             239.007    -57.9152   -57.09 0.829788
 11063 128319.2              251.799             239.353    -58.3539   -57.6349 0.828712
 11070 128400.4              252.138             239.698    -58.7255   -58.1314 0.827618
 11077 128481.6              252.477             240.043    -59.1375   -58.4614 0.826499
 11084 128562.8              252.815             240.388    -59.5626   -58.9289 0.825355
 11091 128644.0              253.155             240.732    -59.9662   -59.4642 0.824189
 11098 128725.2              253.494             241.076    -60.402   -60.0354 0.822997
 11105 128806.4              253.832             241.421    -60.8324   -60.59 0.821776
 11112 128887.6              254.17             241.766    -61.2799   -61.0494 0.820529
 11119 128968.8              254.507             242.112    -61.7577   -61.4696 0.819250
 11126 129050.0              254.846             242.457    -62.2111   -61.7995 0.817944
 11133 129131.2              255.184             242.801    -62.6967   -62.136 0.816611
 11140 129212.4              255.523             243.146    -63.2303   -62.6763 0.815244
 11147 129293.6              255.861             243.491    -63.7706   -63.1883 0.813843
 11154 129374.8              256.199             243.835    -64.3288   -63.7001 0.812411
 11161 129456.0              256.539             244.18    -64.8279   -64.2058 0.810942
 11168 129537.2              256.878             244.524    -65.3845   -64.7556 0.809439
 11175 129618.4              257.216             244.87    -65.9448   -65.4633 0.807894
 11182 129699.6              257.557             245.214    -66.5381   -66.2301 0.806317
 11189 129780.8              257.895             245.559    -67.1714   -66.9908 0.804692
 11196 129862.0              258.234             245.904    -67.8549   -67.5959 0.803027
 11203 129943.2              258.57             246.249    -68.5203   -68.2448 0.801319
 11210 130024.4              258.907             246.594    -69.2444   -68.8314 0.799567
 11217 130105.6              259.246             246.939    -69.9783   -69.5702 0.797766
 11224 130186.8              259.583             247.283    -70.7299   -70.5202 0.795922
 11231 130268.0              259.921             247.629    -71.5035   -71.3333 0.794022
 11238 130349.2              260.26             247.973    -72.2609   -72.0274 0.792073
 11245 130430.4              260.599             248.319    -73.1005   -72.9684 0.790063
 11252 130511.6              260.937             248.663    -73.9002   -73.6685 0.788003
 11259 130592.8              261.276             249.008    -74.7633   -74.4993 0.785880
 11266 130674.0              261.614             249.353    -75.6753   -75.5297 0.783698
 11273 130755.2              261.953             249.697    -76.6052   -76.3704 0.781454
 11280 130836.4              262.291             250.042    -77.588   -77.3565 0.779141
 11287 130917.6              262.628             250.386    -78.6111   -78.4386 0.776759
 11294 130998.8              262.966             250.731    -79.6692   -79.5837 0.774302
 11301 131080.0              263.303             251.076    -80.7543   -80.8141 0.771773
 11308 131161.2              263.641             251.42    -81.8205   -81.862 0.769163
 11315 131242.4              263.981             251.765    -82.9773   -82.8915 0.766473
 11322 131323.6              264.319             252.108    -84.233   -84.0008 0.763703
 11329 131404.8              264.657             252.453    -85.5058   -85.3265 0.760833
 11336 131486.0              264.996             252.798    -86.8038   -86.6408 0.757874
 11343 131567.2              265.335             253.143    -88.1443   -88.0026 0.754812
 11350 131648.4              265.675             253.487    -89.5266   -89.3264 0.751654
 11357 131729.6              266.012             253.832    -91.0205   -90.8246 0.748384
 11364 131810.8              266.351             254.176    -92.5648   -92.3967 0.745003
 11371 131892.0              266.689             254.52    -94.1866   -93.9009 0.741505
 11378 131973.2              267.026             254.865    -95.8354   -95.5964 0.737877
 11385 132054.4              267.364             255.21    -97.5558   -97.5473 0.734123
 11392 132135.6              267.703             255.554    -99.3609   -99.3629 0.730238
 11399 132216.8              268.042             255.898   -101.245  -101.208 0.726206
 11406 132298.0              268.381             256.242   -103.279  -103.333 0.722021
 11413 132379.2              268.72             256.587   -105.379  -105.474 0.717673
 11420 132460.4              269.06             256.931   -107.582  -107.605 0.713163
 11427 132541.6              269.397             257.275   -109.899  -110.049 0.708479
 11434 132622.8              269.736             257.62   -112.305  -112.547 0.703595
 11441 132704.0              270.074             257.964   -114.813  -115.183 0.698512
 11448 132785.2              270.412             258.309   -117.429  -117.651 0.693218
 11455 132866.4              270.748             258.653   -120.198  -120.304 0.687714
 11462 132947.6              271.087             258.997   -123.106  -123.208 0.681953
 11469 133028.8              271.425             259.342   -126.175  -126.388 0.675943
 11476 133110.0              271.763             259.686   -129.372  -129.724 0.669678
 11483 133191.2              272.101             260.03   -132.752  -133.091 0.663114
 11490 133272.4              272.44             260.373   -136.286  -136.649 0.656254
 11497 133353.6              272.777             260.717   -140.014  -140.439 0.649058
 11504 133434.8              273.118             261.062   -143.942  -144.447 0.641489
 11511 133516.0              273.456             261.405   -148.054  -148.826 0.633566
 11518 133597.2              273.794             261.75   -152.407  -153.287 0.625187
 11525 133678.4              274.13             262.093   -156.991  -157.925 0.616420
 11532 133759.6              274.47             262.437   -161.843  -162.799 0.607143
 11539 133840.8              274.807             262.781   -166.978  -167.838 0.597330
 11546 133922.0              275.145             263.124   -172.397  -173.296 0.586960
 11553 134003.2              275.485             263.468   -178.13  -179.139 0.575959
 11560 134084.4              275.823             263.811   -184.146  -184.807 0.564293
 11567 134165.6              276.161             264.155   -190.565  -191.352 0.551808
 11574 134246.8              276.501             264.499   -197.387  -198.412 0.538539
 11581 134328.0              276.839             264.842   -204.555  -205.578 0.524332
 11588 134409.2              277.177             265.185   -212.155  -213.013 0.509075
 11595 134490.4              277.516             265.528   -220.138  -220.949 0.492679
 11602 134571.6              277.855             265.872   -228.576  -229.338 0.474945
 11609 134652.8              278.192             266.215   -237.498  -238.389 0.455751
 11616 134734.0              278.531             266.557   -246.898  -247.672 0.434868
 11623 134815.2              278.869             266.9   -256.805  -257.685 0.412044
 11630 134896.4              279.208             267.243   -267.244  -268.161 0.386926
 11637 134977.6              279.547             267.586   -278.255  -279.084 0.359179
 11644 135058.8              279.886             267.928   -289.786  -290.594 0.328449
 11651 135140.0              280.224             268.272   -301.93  -302.609 0.293833
 11658 135221.2              280.564             268.614   -314.639  -315.272 0.254919
 11665 135302.4              280.902             268.956   -328.034  -328.625 0.210454
 11672 135383.6              281.239             269.298   -341.905  -342.474 0.159196
 11679 135464.8              281.578             269.641   -356.041  -356.612 0.099320
 11686 135546.0              281.915             269.982   -370.457  -371.286 0.028316
 11693 135627.2              282.253             270.325   -385.313  -386.137      NaN
 11700 135708.4              282.591             270.667   -400.662  -401.268      NaN
 11707 135789.6              282.929             271.008   -416.431  -416.943      NaN
 11714 135870.8              283.268             271.349   -432.488  -433.181      NaN
 11721 135952.0              283.607             271.691   -448.792  -449.511      NaN
 11728 136033.2              283.943             272.032   -464.866  -465.6      NaN
 11735 136114.4              284.281             272.372   -480.172  -481.005      NaN
 11742 136195.6              284.617             272.714   -494.314  -495.433      NaN
 11749 136276.8              284.954             273.054   -507.018  -508.131      NaN
 11756 136358.0              285.291             273.395   -518.469  -519.491      NaN
 11763 136439.2              285.63             273.735   -527.67  -528.639      NaN
 11770 136520.4              285.968             274.075   -534.589  -535.409      NaN
 11777 136601.6              286.306             274.416   -538.667  -539.395      NaN
 11784 136682.8              286.647             274.757   -537.673  -538.318      NaN
 11791 136764.0              286.986             275.097   -530.262  -530.922      NaN
 11798 136845.2              287.325             275.438   -515.147  -515.717      NaN
 11805 136926.4              287.665             275.78   -496.614  -497.307      NaN
 11812 137007.6              288.004             276.121   -459.736  -460.791      NaN
 11819 137088.8              288.343             276.464   -391.877  -392.972      NaN
 11826 137170.0              288.683             276.808   -322.516  -323.524      NaN
 11833 137251.2              289.022             277.153   -269.943  -270.917      NaN
 11840 137332.4              289.36             277.499   -229.04  -229.944      NaN
 11847 137413.6              289.699             277.845   -197.227  -198.003      NaN
 11854 137494.8              290.037             278.192   -172.519  -173.484      NaN
 11861 137576.0              290.374             278.539   -153.341  -154.619      NaN
 11868 137657.2              290.711             278.885   -138.486  -139.53      NaN
 11875 137738.4              291.049             279.231   -126.968  -127.979      NaN
 11882 137819.6              291.386             279.577   -118.049  -119.171      NaN
 11889 137900.8              291.724             279.925   -111.135  -112.156      NaN
 11896 137982.0              292.063             280.27   -105.79  -106.798      NaN
 11903 138063.2              292.402             280.618   -101.649  -102.68      NaN
 11910 138144.4              292.741             280.964    -98.4386   -99.5332      NaN
 11917 138225.6              293.081             281.31    -95.9485   -97.007      NaN
 11924 138306.8              293.419             281.657    -94.019   -95.1534      NaN
 11931 138388.0              293.758             282.003    -92.5179   -93.684      NaN
 11938 138469.2              294.097             282.35    -91.3607   -92.4123      NaN
 11945 138550.4              294.435             282.696    -90.4569   -91.6394      NaN
 11952 138631.6              294.774             283.042    -89.7615   -91.2234      NaN
 11959 138712.8              295.113             283.389    -89.2129   -90.6705      NaN
 11966 138794.0              295.451             283.735    -88.7857   -90.256      NaN
 11973 138875.2              295.788             284.082    -88.4476   -89.8092      NaN
 11980 138956.4              296.126             284.427    -88.1855   -89.6227      NaN
 11987 139037.6              296.465             284.773    -87.9824   -89.2975      NaN
 11994 139118.8              296.803             285.12    -87.8213   -89.2543      NaN
 12001 139200.0              297.141             285.466    -87.678   -89.0294      NaN
 12008 139281.2              297.48             285.81    -87.5581   -88.7492      NaN
 12015 139362.4              297.817             286.156    -87.458   -88.7875      NaN
 12022 139443.6              298.155             286.503    -87.3755   -88.7279      NaN
 12029 139524.8              298.493             286.848    -87.2983   -88.6638      NaN
 12036 139606.0              298.831             287.193    -87.2294   -88.6001      NaN
 12043 139687.2              299.171             287.539    -87.165   -88.4965      NaN
 12050 139768.4              299.325             287.883    -87.1154   -88.5427      NaN
 12057 139849.6              299.323             288.219    -87.004   -88.5089      NaN
 12064 139930.8              299.305             288.544    -86.7892   -88.2653      NaN
 12071 140012.0              299.282             288.861    -86.3944   -87.805      NaN
 12078 140093.2              299.259             289.166    -85.7578   -87.1186      NaN
 12085 140174.4              299.24             289.462    -84.862   -86.1489      NaN
 12092 140255.6              299.226             289.747    -83.707   -84.9128      NaN
 12099 140336.8              299.215             290.024    -82.327   -83.8774      NaN
 12100 140348.4              299.214             290.062    -82.1124   -83.6743      NaN